Target(Class),GyroX,GyroY,GyroZ,AccX,AccY,AccZ
1,-0.9236641221374046,3.6946564885496183,0.8244274809160306,0.16259765625,-0.086669921875,-0.969482421875
1,-0.9083969465648856,4.534351145038168,0.8320610687022901,0.17578125,-0.1005859375,-1.01318359375
1,0.7862595419847328,3.969465648854962,0.5877862595419847,0.32275390625,-0.140380859375,-0.91162109375
1,0.3358778625954199,4.564885496183206,-0.2519083969465649,0.480224609375,-0.226806640625,-0.936767578125
1,3.3511450381679393,2.6946564885496183,-0.1068702290076336,0.426025390625,-0.25390625,-0.9501953125
1,-1.5038167938931297,3.183206106870229,-1.656488549618321,0.3837890625,-0.1416015625,-0.919677734375
1,1.3587786259541987,8.725190839694656,-0.9465648854961832,0.40478515625,-0.25732421875,-0.862548828125
1,-1.083969465648855,4.106870229007634,-0.6259541984732825,0.346923828125,-0.106201171875,-0.969970703125
1,0.053435114503816786,5.083969465648855,-2.221374045801527,0.276611328125,-0.257568359375,-1.00830078125
1,-1.106870229007634,3.656488549618321,0.7786259541984732,0.158935546875,-0.111572265625,-0.971435546875
1,-0.9923664122137404,3.3053435114503817,0.6946564885496184,0.17724609375,-0.100341796875,-1.002197265625
1,-0.8396946564885496,3.725190839694656,0.7404580152671756,0.18115234375,-0.095458984375,-0.980224609375
1,-0.1297709923664122,4.083969465648855,0.8778625954198473,0.306396484375,-0.16064453125,-0.94677734375
1,-1.3587786259541987,5.564885496183206,0.1984732824427481,0.51220703125,-0.1865234375,-0.977783203125
1,1.282442748091603,0.4045801526717557,1.1984732824427482,0.577392578125,-0.29736328125,-0.86083984375
1,-0.2366412213740458,0.7328244274809159,1.4503816793893132,0.34716796875,-0.072509765625,-1.05224609375
1,-0.8473282442748091,2.030534351145038,0.6946564885496184,0.490478515625,-0.109619140625,-0.966064453125
1,1.770992366412214,8.526717557251908,1.946564885496183,0.455322265625,-0.253173828125,-0.851318359375
1,-0.6106870229007634,4.450381679389314,0.816793893129771,0.157958984375,-0.0654296875,-1.016357421875
1,-0.7480916030534351,4.3740458015267185,0.8091603053435115,0.15576171875,-0.082275390625,-0.987548828125
1,-0.5877862595419847,5.366412213740458,1.8778625954198471,0.3564453125,-0.18603515625,-1.053466796875
1,-0.3893129770992366,2.5267175572519083,0.3816793893129771,0.516845703125,-0.183349609375,-0.808349609375
1,1.3206106870229009,9.213740458015268,1.83206106870229,0.6435546875,-0.2158203125,-1.069580078125
1,-3.709923664122138,5.793893129770992,-1.419847328244275,0.3046875,-0.197998046875,-1.033203125
1,-5.694656488549619,4.778625954198472,-0.015267175572519082,0.465087890625,-0.1669921875,-0.8388671875
1,1.916030534351145,4.3740458015267185,-0.5267175572519084,0.257568359375,-0.132568359375,-0.9482421875
1,2.618320610687023,8.229007633587786,-1.312977099236641,0.0791015625,-0.00537109375,-0.870361328125
1,-0.5954198473282443,4.2824427480916025,0.8625954198473282,0.18212890625,-0.104248046875,-0.986572265625
1,-0.7557251908396947,4.503816793893129,0.9541984732824428,0.222412109375,-0.087158203125,-0.990234375
1,0.4961832061068702,8.717557251908397,1.030534351145038,0.5126953125,-0.194580078125,-0.825927734375
1,-0.06870229007633588,2.8702290076335877,1.9312977099236641,0.456298828125,-0.17919921875,-0.9375
1,-2.4885496183206106,6.648854961832062,1.045801526717557,0.556396484375,-0.1875,-0.981689453125
1,-0.2290076335877863,6.679389312977098,-0.7557251908396947,0.380615234375,-0.243408203125,-1.003173828125
1,-0.5725190839694656,4.908396946564887,0.916030534351145,0.455078125,-0.2421875,-0.96484375
1,1.580152671755725,0.648854961832061,-2.4656488549618323,0.291748046875,-0.375244140625,-1.12451171875
1,1.053435114503817,7.091603053435113,1.0610687022900758,0.242431640625,0.08056640625,-0.81005859375
1,-0.4045801526717557,4.068702290076335,0.9770992366412212,0.15869140625,-0.087890625,-1.02099609375
1,-0.4045801526717557,4.229007633587786,0.900763358778626,0.156494140625,-0.088134765625,-0.9853515625
1,2.50381679389313,4.496183206106871,1.4732824427480917,0.393798828125,-0.135009765625,-0.942138671875
1,-3.33587786259542,4.290076335877862,0.9847328244274808,0.4921875,-0.070068359375,-0.82470703125
1,-3.1908396946564888,3.4656488549618323,-1.3587786259541987,0.489501953125,-0.2744140625,-1.021484375
1,-4.9465648854961835,10.65648854961832,-0.2824427480916031,0.381103515625,-0.047119140625,-1.126220703125
1,-4.473282442748092,9.503816793893131,0.5114503816793893,0.517333984375,-0.245361328125,-0.778076171875
1,10.152671755725189,5.564885496183206,1.213740458015267,0.419921875,-0.119873046875,-1.042236328125
1,-0.9694656488549618,9.557251908396944,-0.6717557251908397,0.1689453125,-0.1552734375,-1.11474609375
1,-0.7099236641221374,5.045801526717558,0.6183206106870229,0.179443359375,-0.088623046875,-1.018798828125
1,-0.2137404580152672,4.221374045801527,0.8854961832061069,0.26123046875,-0.13232421875,-1.034912109375
1,1.091603053435114,5.549618320610686,0.4122137404580153,0.54931640625,-0.27587890625,-0.882080078125
1,-3.541984732824428,4.923664122137406,-1.213740458015267,0.6083984375,-0.192626953125,-0.916748046875
1,-1.633587786259542,7.190839694656487,-1.8702290076335881,0.32861328125,-0.050048828125,-0.913818359375
1,0.5343511450381679,4.66412213740458,-2.122137404580153,0.378662109375,-0.06396484375,-0.934326171875
1,0.6106870229007634,3.038167938931298,1.5114503816793892,0.549560546875,-0.17333984375,-1.087158203125
1,2.061068702290076,-2.8015267175572522,-0.2137404580152672,0.1337890625,-0.078857421875,-1.2158203125
1,-1.8778625954198471,0.2824427480916031,-1.3816793893129773,0.194091796875,-0.178466796875,-1.083251953125
1,-0.4656488549618321,4.236641221374046,0.9465648854961832,0.15625,-0.0771484375,-1.005126953125
1,-0.6717557251908397,4.442748091603052,0.8320610687022901,0.171142578125,-0.06396484375,-1.011474609375
1,-0.8015267175572519,4.564885496183206,0.9465648854961832,0.20458984375,-0.065185546875,-1.049560546875
1,0.9465648854961832,6.389312977099237,0.8778625954198473,0.445556640625,-0.23095703125,-0.984375
1,-3.6870229007633593,3.3664122137404577,-1.8702290076335881,0.4619140625,-0.17919921875,-0.924560546875
1,-0.2595419847328244,2.053435114503817,0.4809160305343512,0.4541015625,-0.16259765625,-0.880126953125
1,3.458015267175572,-0.2290076335877863,0.9847328244274808,0.400146484375,-0.27294921875,-1.01123046875
1,-4.648854961832061,7.435114503816794,3.7022900763358777,0.55517578125,-0.3251953125,-1.104248046875
1,-5.442748091603052,4.7251908396946565,0.5267175572519084,0.3037109375,-0.112060546875,-1.280517578125
1,-0.6183206106870229,4.33587786259542,1.2671755725190839,0.19140625,-0.08642578125,-1.00634765625
1,-0.6412213740458015,4.557251908396948,0.7633587786259542,0.201416015625,-0.083984375,-1.0126953125
1,-0.3587786259541985,8.442748091603054,0.7633587786259542,0.282470703125,-0.061279296875,-0.979736328125
1,-2.885496183206107,2.297709923664122,-1.045801526717557,0.483154296875,-0.201904296875,-0.8583984375
1,-3.0992366412213737,7.908396946564887,-0.900763358778626,0.41259765625,-0.145263671875,-0.826416015625
1,2.740458015267175,-0.18320610687022898,-2.1908396946564888,0.38916015625,-0.033203125,-1.23828125
1,2.274809160305344,11.49618320610687,-0.7709923664122137,0.49365234375,-0.195556640625,-1.230712890625
1,-5.4885496183206115,1.053435114503817,0.8549618320610687,0.381591796875,-0.2509765625,-0.8740234375
1,-1.9618320610687021,7.053435114503817,0.7480916030534351,0.12744140625,-0.18017578125,-1.031982421875
1,-0.3587786259541985,4.709923664122138,0.6946564885496184,0.1796875,-0.08203125,-1.026611328125
1,-0.5419847328244275,4.3969465648854955,1.0381679389312979,0.14501953125,-0.091552734375,-1.0009765625
1,-3.5877862595419847,9.045801526717558,0.04580152671755725,0.407958984375,-0.195556640625,-1.009033203125
1,1.748091603053435,4.526717557251908,0.3053435114503817,0.507080078125,-0.2685546875,-0.99267578125
1,0.5419847328244275,1.946564885496183,2.5877862595419847,0.455810546875,-0.09521484375,-0.875244140625
1,-1.3816793893129773,7.5954198473282455,5.213740458015267,0.5419921875,-0.12353515625,-1.0546875
1,-7.3740458015267185,11.572519083969471,1.4885496183206108,0.34326171875,-0.166259765625,-1.00927734375
1,-1.6793893129770991,5.946564885496183,5.786259541984732,0.1220703125,-0.03369140625,-1.16650390625
1,-4.030534351145038,9.396946564885496,4.206106870229007,0.103759765625,-0.050537109375,-1.18408203125
1,-0.7709923664122137,5.106870229007634,-0.3511450381679389,0.16845703125,-0.0732421875,-0.992431640625
1,-0.3282442748091603,4.786259541984733,0.7938931297709924,0.149169921875,-0.078125,-1.01806640625
1,1.6793893129770991,5.534351145038168,1.7633587786259541,0.55029296875,-0.193603515625,-0.88916015625
1,-2.618320610687023,6.4045801526717545,0.5114503816793893,0.590087890625,-0.2265625,-0.860595703125
1,0.06106870229007633,3.259541984732825,0.4351145038167939,0.504638671875,-0.18994140625,-0.926513671875
1,0.1984732824427481,3.740458015267175,1.717557251908397,0.424560546875,-0.234130859375,-1.022216796875
1,3.9007633587786263,6.053435114503817,1.0992366412213739,0.355712890625,-0.20068359375,-0.974853515625
1,-2.33587786259542,-3.549618320610687,2.5801526717557253,0.21240234375,-0.151123046875,-0.810302734375
1,-1.3206106870229009,6.8549618320610675,2.9770992366412212,0.03564453125,0.015380859375,-1.17431640625
1,-0.6717557251908397,4.442748091603052,1.1526717557251909,0.169921875,-0.07080078125,-1.010009765625
1,-0.7938931297709924,4.2748091603053435,0.8702290076335878,0.161865234375,-0.078857421875,-0.994384765625
1,1.824427480916031,1.5038167938931297,0.1068702290076336,0.375732421875,-0.194580078125,-1.076171875
1,-2.6030534351145036,4.076335877862595,1.5267175572519083,0.605712890625,-0.187255859375,-0.990478515625
1,2.961832061068702,7.580152671755725,0.18320610687022898,0.48828125,-0.101318359375,-0.953369140625
1,-3.259541984732825,5.687022900763358,3.6412213740458017,0.282958984375,-0.126220703125,-1.045654296875
1,-8.16793893129771,2.4122137404580153,-0.1679389312977099,0.252685546875,-0.323486328125,-0.85595703125
1,-3.725190839694656,1.633587786259542,5.045801526717558,0.108154296875,0.054443359375,-1.05078125
1,1.893129770992366,5.8244274809160315,7.33587786259542,0.0458984375,-0.071044921875,-1.2939453125
1,-0.6717557251908397,4.3740458015267185,0.7328244274809159,0.201416015625,-0.085205078125,-1.004150390625
1,-0.4427480916030535,3.8015267175572522,0.7709923664122137,0.183837890625,-0.098876953125,-0.930908203125
1,-5.755725190839693,3.8778625954198467,0.8625954198473282,0.468994140625,-0.167724609375,-0.98974609375
1,0.5419847328244275,3.549618320610687,0.900763358778626,0.547119140625,-0.208984375,-0.926513671875
1,0.7175572519083969,2.404580152671756,-0.2824427480916031,0.274658203125,-0.086669921875,-1.07763671875
1,-1.8702290076335881,7.290076335877862,1.709923664122137,0.45703125,-0.210205078125,-1.078857421875
1,3.618320610687023,7.122137404580152,0.4503816793893129,0.2060546875,-0.02294921875,-0.92822265625
1,-5.8549618320610675,-2.061068702290076,3.0687022900763363,0.16064453125,0.004638671875,-1.0703125
1,-4.961832061068702,2.770992366412214,2.4885496183206106,0.0859375,-0.088623046875,-1.135498046875
1,-0.2977099236641221,4.519083969465648,1.16030534351145,0.156005859375,-0.1015625,-1.008056640625
1,-0.7557251908396947,4.587786259541986,1.1832061068702289,0.177490234375,-0.06982421875,-1.00634765625
1,4.7328244274809155,5.839694656488549,1.6183206106870232,0.4541015625,-0.231201171875,-0.969970703125
1,-0.4732824427480916,5.114503816793894,1.709923664122137,0.5107421875,-0.209228515625,-0.86962890625
1,-0.015267175572519082,1.625954198473282,0.6793893129770993,0.349609375,-0.151611328125,-0.888671875
1,6.7328244274809155,5.786259541984732,2.3969465648854964,0.4453125,-0.170654296875,-0.903076171875
1,-11.664122137404581,7.7328244274809155,1.946564885496183,0.390625,0.0576171875,-0.630615234375
1,7.290076335877862,13.2824427480916,0.900763358778626,0.1845703125,-0.09912109375,-0.91162109375
1,-3.16793893129771,0.06870229007633588,1.9618320610687021,0.086181640625,0.056884765625,-1.03662109375
1,-0.1603053435114504,4.2671755725190845,0.8473282442748091,0.2001953125,-0.109375,-1.009033203125
1,-0.2595419847328244,4.656488549618321,0.7175572519083969,0.15673828125,-0.086669921875,-1.005126953125
1,-2.5877862595419847,6.541984732824428,0.5801526717557252,0.4091796875,-0.10791015625,-0.992919921875
1,-0.4580152671755725,6.0,1.312977099236641,0.53662109375,-0.177978515625,-1.012939453125
1,-0.1755725190839695,13.564885496183212,0.04580152671755725,0.55712890625,-0.2626953125,-0.99609375
1,0.8396946564885496,6.66412213740458,-0.5954198473282443,0.353515625,-0.08642578125,-1.003173828125
1,1.213740458015267,-0.03816793893129771,0.03053435114503817,0.205322265625,-0.112060546875,-0.9287109375
1,-6.709923664122138,10.19083969465649,2.7251908396946556,0.221923828125,-0.032470703125,-0.879638671875
1,5.137404580152672,2.8625954198473282,4.625954198473282,-0.017333984375,0.16357421875,-0.861572265625
1,-0.3435114503816794,4.541984732824427,0.6946564885496184,0.1611328125,-0.107177734375,-1.027587890625
1,-2.259541984732825,0.7251908396946565,0.9389312977099236,0.241943359375,-0.12890625,-1.038818359375
1,-1.374045801526718,4.7328244274809155,0.7480916030534351,0.2470703125,-0.09912109375,-0.998046875
1,-0.7938931297709924,1.5038167938931297,0.1679389312977099,0.475341796875,-0.210693359375,-0.934814453125
1,-1.175572519083969,6.160305343511451,0.7251908396946565,0.5224609375,-0.21826171875,-0.950439453125
1,5.351145038167939,2.5267175572519083,1.8167938931297711,0.525390625,-0.230224609375,-1.07177734375
1,-2.49618320610687,11.091603053435119,3.3511450381679393,0.498046875,-0.235595703125,-1.35986328125
1,1.6488549618320612,4.549618320610686,4.419847328244275,0.088623046875,0.049560546875,-0.8818359375
1,0.6946564885496184,5.633587786259542,7.549618320610688,0.08837890625,0.0771484375,-1.23681640625
1,-0.8549618320610687,4.7328244274809155,0.8549618320610687,0.177978515625,-0.091796875,-1.049560546875
1,-4.099236641221374,7.435114503816794,0.5419847328244275,0.409912109375,-0.169677734375,-1.06396484375
1,-1.603053435114504,2.091603053435115,3.9007633587786263,0.437255859375,-0.105224609375,-0.992431640625
1,-1.748091603053435,4.0534351145038165,2.6946564885496183,0.50439453125,-0.091552734375,-0.83740234375
1,-1.740458015267176,1.297709923664122,2.6564885496183206,0.427001953125,-0.17138671875,-0.930908203125
1,-3.8778625954198467,3.442748091603054,1.5496183206106868,0.2607421875,-0.1259765625,-1.006591796875
1,-0.9236641221374046,2.106870229007634,1.022900763358779,0.1611328125,-0.1669921875,-1.058837890625
1,-4.061068702290076,1.190839694656489,-1.4045801526717558,0.1201171875,-0.124755859375,-1.10693359375
1,0.0,2.7480916030534353,0.2442748091603053,0.061279296875,-0.122314453125,-1.146484375
1,-0.3511450381679389,4.679389312977099,0.7404580152671756,0.160888671875,-0.093017578125,-1.0078125
1,-0.1908396946564886,6.114503816793892,0.7480916030534351,0.157958984375,-0.1025390625,-1.0087890625
1,-5.557251908396948,1.221374045801527,0.5496183206106869,0.41064453125,-0.08984375,-0.958251953125
1,1.015267175572519,2.671755725190839,1.4885496183206108,0.4951171875,-0.162109375,-1.00830078125
1,-2.33587786259542,-1.2671755725190839,1.175572519083969,0.43310546875,-0.188720703125,-0.85986328125
1,1.137404580152672,7.450381679389312,3.717557251908397,0.418701171875,-0.072265625,-1.2783203125
1,2.83206106870229,7.213740458015268,0.5419847328244275,0.132080078125,0.00439453125,-0.831298828125
1,-3.221374045801527,5.755725190839693,-0.9694656488549618,0.16015625,-0.15478515625,-1.060546875
1,0.7175572519083969,3.091603053435115,-6.160305343511451,0.011474609375,-0.1015625,-1.08935546875
1,0.07633587786259542,4.022900763358779,0.7175572519083969,0.18701171875,-0.095458984375,-0.99267578125
1,-0.7938931297709924,5.1679389312977095,0.7404580152671756,0.197021484375,-0.095703125,-0.99560546875
1,1.541984732824427,2.66412213740458,0.9770992366412212,0.503662109375,-0.18408203125,-0.97216796875
1,-2.404580152671756,7.183206106870228,1.33587786259542,0.460693359375,-0.189453125,-1.077392578125
1,0.9770992366412212,9.030534351145038,0.2213740458015267,0.37890625,-0.233154296875,-1.014892578125
1,1.541984732824427,3.541984732824428,-0.1526717557251908,0.242431640625,-0.111328125,-1.0166015625
1,2.816793893129771,3.9770992366412212,0.6946564885496184,0.0888671875,-0.09521484375,-0.9228515625
1,-0.6183206106870229,4.984732824427481,-3.2366412213740463,0.195556640625,-0.212890625,-1.171875
1,-1.7557251908396951,4.916030534351145,-2.3053435114503817,0.08154296875,-0.12744140625,-0.9931640625
1,-0.3129770992366412,4.2595419847328255,0.7404580152671756,0.16552734375,-0.07568359375,-1.0029296875
1,-0.2519083969465649,5.122137404580153,1.129770992366412,0.278076171875,-0.08447265625,-0.997802734375
1,-1.6793893129770991,6.2748091603053435,-0.9389312977099236,0.463134765625,-0.131591796875,-0.97412109375
1,0.4732824427480916,2.816793893129771,-2.7022900763358777,0.420654296875,-0.131591796875,-0.810302734375
1,0.2442748091603053,2.961832061068702,1.0,0.45166015625,-0.215087890625,-1.154296875
1,6.587786259541985,5.938931297709924,2.351145038167939,0.27783203125,-0.195556640625,-1.14501953125
1,-2.2519083969465647,-3.343511450381679,-0.0076335877862595426,0.232666015625,-0.255126953125,-1.11083984375
1,4.198473282442748,13.3969465648855,-2.33587786259542,0.145751953125,0.002685546875,-0.9013671875
1,1.106870229007634,2.038167938931298,-8.351145038167939,-0.078857421875,-0.21337890625,-1.121826171875
1,-0.6793893129770993,3.969465648854962,0.8549618320610687,0.18994140625,-0.071533203125,-0.989990234375
1,-0.8854961832061069,3.9770992366412212,0.9770992366412212,0.17919921875,-0.063720703125,-0.961181640625
1,-0.6183206106870229,5.427480916030534,1.3893129770992372,0.314697265625,-0.10205078125,-0.92529296875
1,-1.4045801526717558,5.221374045801528,-1.045801526717557,0.447021484375,-0.144775390625,-0.96728515625
1,-5.0534351145038165,3.5343511450381677,-2.145038167938931,0.47509765625,-0.146728515625,-1.0390625
1,1.748091603053435,2.648854961832061,-2.0,0.548583984375,-0.3427734375,-1.056640625
1,-2.450381679389313,8.442748091603054,-0.5572519083969466,0.332275390625,-0.120849609375,-1.015625
1,-5.0534351145038165,1.0687022900763359,3.7633587786259537,0.304931640625,-0.104248046875,-0.838623046875
1,-0.2900763358778626,-2.152671755725191,1.748091603053435,0.4404296875,-0.073486328125,-1.081298828125
1,7.343511450381678,2.2442748091603053,1.885496183206107,0.482666015625,-0.16455078125,-1.033935546875
1,-4.2595419847328255,2.053435114503817,2.045801526717557,0.478271484375,-0.128662109375,-1.036376953125
1,-7.541984732824428,2.267175572519084,2.969465648854962,0.491455078125,-0.305908203125,-0.72900390625
1,-2.572519083969466,2.1984732824427478,-1.030534351145038,0.5166015625,-0.18212890625,-0.7685546875
1,-11.480916030534349,-1.1450381679389308,0.2824427480916031,0.494384765625,-0.15869140625,-0.456787109375
1,-1.9312977099236641,1.740458015267176,0.03816793893129771,0.25439453125,-0.126220703125,-1.00244140625
1,3.946564885496183,-0.4351145038167939,1.748091603053435,0.191650390625,-0.219482421875,-0.884033203125
1,2.9770992366412212,0.7938931297709924,0.8015267175572519,0.100341796875,-0.032958984375,-0.947021484375
1,2.595419847328244,7.33587786259542,1.4351145038167938,0.031005859375,0.017822265625,-1.03369140625
1,-0.3893129770992366,5.8549618320610675,-0.3969465648854962,0.165771484375,-0.03955078125,-1.009033203125
1,-1.0610687022900758,4.473282442748092,0.4580152671755725,0.19580078125,-0.021728515625,-0.98486328125
1,-0.2977099236641221,4.648854961832061,0.7938931297709924,0.184326171875,-0.0625,-1.02197265625
1,-0.8091603053435115,4.137404580152672,0.8473282442748091,0.181396484375,-0.068359375,-1.009521484375
1,-0.7709923664122137,4.312977099236641,0.7862595419847328,0.182861328125,-0.048828125,-1.014892578125
1,-0.8396946564885496,4.2824427480916025,0.6106870229007634,0.18603515625,-0.061767578125,-0.98486328125
1,-0.816793893129771,4.206106870229007,1.0,0.190673828125,-0.072021484375,-0.9736328125
1,-0.9465648854961832,4.114503816793893,0.8702290076335878,0.197509765625,-0.06787109375,-0.986328125
1,-0.6717557251908397,4.236641221374046,0.9847328244274808,0.193115234375,-0.0634765625,-1.009521484375
1,-5.0,12.22137404580153,-0.931297709923664,0.503662109375,-0.06201171875,-0.965576171875
1,5.061068702290076,-0.4427480916030535,0.9847328244274808,0.329345703125,-0.058837890625,-0.87939453125
1,-9.83969465648855,4.755725190839693,3.717557251908397,0.304931640625,-0.01611328125,-0.804443359375
1,-2.221374045801527,3.221374045801527,-1.809160305343511,-0.013916015625,0.125244140625,-1.136474609375
1,2.786259541984733,-1.290076335877863,-4.923664122137406,0.1484375,-0.136962890625,-1.084716796875
1,-1.5267175572519083,0.9694656488549618,-4.8396946564885495,0.034912109375,-0.105712890625,-1.19775390625
1,0.8473282442748091,-1.694656488549618,-1.229007633587786,-0.032470703125,-0.011962890625,-0.74462890625
1,4.114503816793893,7.305343511450381,4.541984732824427,0.08447265625,0.116943359375,-0.87255859375
1,-2.3587786259541983,5.2748091603053435,13.67175572519084,0.2197265625,0.1884765625,-0.9794921875
1,2.908396946564885,4.1603053435114505,2.717557251908397,0.052978515625,-0.030517578125,-0.98681640625
1,-5.190839694656488,7.7328244274809155,2.893129770992366,0.19384765625,-0.149169921875,-0.792724609375
1,-1.9312977099236641,5.8473282442748085,3.8091603053435112,0.206298828125,0.024658203125,-0.940673828125
1,-14.648854961832061,-0.1221374045801527,4.9465648854961835,0.04931640625,-0.014404296875,-0.794921875
1,0.3740458015267176,1.175572519083969,0.5038167938931297,0.134033203125,-0.096923828125,-1.118896484375
1,1.2366412213740459,1.33587786259542,0.1755725190839695,0.057373046875,-0.102783203125,-1.285888671875
1,1.801526717557252,2.50381679389313,0.3129770992366412,-0.069580078125,-0.07861328125,-1.029296875
1,-1.0,9.717557251908396,2.259541984732825,-0.201904296875,0.136474609375,-0.861328125
1,2.0839694656488548,-1.6412213740458013,0.0076335877862595426,-0.040283203125,-0.06787109375,-0.854736328125
1,-0.6946564885496184,4.679389312977099,1.396946564885496,0.211181640625,-0.06494140625,-0.990478515625
1,-1.0687022900763359,8.648854961832061,1.8473282442748091,0.441650390625,-0.142822265625,-0.931396484375
1,-0.6870229007633588,6.137404580152673,1.015267175572519,0.533935546875,-0.146728515625,-0.919189453125
1,-0.7251908396946565,6.106870229007634,1.770992366412214,0.546630859375,-0.127685546875,-1.131103515625
1,-0.3740458015267176,2.66412213740458,0.916030534351145,0.458740234375,-0.138427734375,-0.88623046875
1,-3.389312977099237,2.030534351145038,1.5572519083969463,0.36572265625,-0.12548828125,-0.881103515625
1,1.312977099236641,0.3816793893129771,0.4732824427480916,0.306640625,-0.021484375,-0.912109375
1,2.4732824427480917,3.7022900763358777,1.3282442748091599,0.448974609375,-0.129150390625,-0.8310546875
1,-2.206106870229008,6.7251908396946565,0.8473282442748091,0.60400390625,-0.15966796875,-0.950927734375
1,-0.1145038167938931,4.251908396946565,0.4580152671755725,0.2392578125,-0.102294921875,-0.972900390625
1,-1.305343511450382,6.610687022900763,1.0610687022900758,0.361328125,-0.112548828125,-0.90380859375
1,-1.633587786259542,3.030534351145038,0.1908396946564886,0.47998046875,-0.207275390625,-0.82666015625
1,2.442748091603054,3.183206106870229,-0.015267175572519082,0.556884765625,-0.213134765625,-0.8720703125
1,-0.09923664122137403,5.244274809160307,-0.3435114503816794,0.638916015625,-0.135986328125,-0.900146484375
1,-1.1984732824427482,3.33587786259542,0.09923664122137403,0.253662109375,-0.038818359375,-1.185546875
1,-6.0381679389312986,6.106870229007634,-0.2900763358778626,0.4052734375,-0.244384765625,-0.997802734375
1,-3.374045801526718,3.1297709923664123,1.4427480916030537,0.469970703125,-0.067138671875,-0.910888671875
1,-0.3511450381679389,5.076335877862594,-1.282442748091603,0.150146484375,-0.04931640625,-0.7890625
1,-3.229007633587786,-0.4656488549618321,3.885496183206107,0.385498046875,-0.069091796875,-0.675048828125
1,3.946564885496183,11.190839694656491,2.16793893129771,0.615966796875,-0.083740234375,-1.14013671875
1,1.5038167938931297,0.2900763358778626,1.83206106870229,0.2763671875,-0.160888671875,-0.979248046875
1,8.267175572519085,7.587786259541985,0.4732824427480916,0.469482421875,-0.266357421875,-0.964111328125
1,-6.641221374045801,7.022900763358778,1.137404580152672,0.3232421875,-0.055908203125,-0.792724609375
1,-5.9618320610687014,0.1908396946564886,1.938931297709924,0.03271484375,-0.053466796875,-1.093994140625
1,-8.221374045801527,7.099236641221374,0.4503816793893129,0.2177734375,-0.161865234375,-1.014404296875
1,2.946564885496183,5.442748091603052,0.9541984732824428,-0.020263671875,-0.0634765625,-1.134033203125
1,3.8702290076335877,1.229007633587786,1.0381679389312979,0.017578125,-0.024658203125,-1.218505859375
1,-1.908396946564886,4.145038167938932,0.8702290076335878,0.150634765625,-0.07958984375,-0.995361328125
1,0.3587786259541985,6.99236641221374,1.1450381679389308,0.34326171875,-0.110107421875,-0.983642578125
1,0.3206106870229007,5.610687022900763,0.4503816793893129,0.485595703125,-0.17138671875,-1.018798828125
1,-2.099236641221374,3.0229007633587788,3.2442748091603053,0.59619140625,-0.167724609375,-0.801513671875
1,0.2137404580152672,4.5114503816793885,2.893129770992366,0.494384765625,-0.107421875,-0.909912109375
1,-5.450381679389314,5.061068702290076,1.083969465648855,0.4658203125,-0.1962890625,-1.076904296875
1,0.2595419847328244,8.931297709923664,2.427480916030534,0.62939453125,-0.313232421875,-1.153564453125
1,2.1374045801526718,0.26717557251908397,0.2442748091603053,0.37646484375,-0.122802734375,-0.760986328125
1,1.793893129770992,0.1984732824427481,0.9541984732824428,0.5546875,-0.227294921875,-0.8876953125
2,-1.3282442748091599,4.3816793893129775,1.122137404580153,0.162353515625,-0.067138671875,-0.972900390625
2,-0.4961832061068702,2.7251908396946556,5.458015267175573,0.31640625,-0.1328125,-0.931396484375
2,-1.3282442748091599,1.7328244274809161,4.099236641221374,0.171875,-0.0732421875,-0.9423828125
2,-1.076335877862595,4.99236641221374,3.740458015267175,0.337890625,-0.156982421875,-1.0908203125
2,7.0458015267175576,4.030534351145038,1.0381679389312979,0.256591796875,-0.16943359375,-0.92626953125
2,-3.732824427480916,7.557251908396948,0.9389312977099236,0.13525390625,-0.053466796875,-0.878662109375
2,0.1603053435114504,7.770992366412214,-3.839694656488549,0.21240234375,-0.18212890625,-1.090087890625
2,7.229007633587786,-1.4427480916030537,-33.23664122137404,0.03125,-0.6611328125,-1.219482421875
2,-3.618320610687023,-1.1450381679389308,-39.42748091603053,-0.15185546875,-0.4423828125,-0.953369140625
2,-2.618320610687023,1.625954198473282,-18.34351145038168,0.10302734375,-0.15380859375,-0.946044921875
2,1.908396946564886,2.312977099236641,-1.4122137404580148,0.14013671875,0.0078125,-0.90625
2,-1.0610687022900758,3.152671755725191,2.4732824427480917,0.06494140625,-0.000244140625,-0.943115234375
2,-0.9847328244274808,4.809160305343512,1.022900763358779,0.203125,-0.070068359375,-1.00390625
2,-4.190839694656488,4.312977099236641,4.870229007633588,0.319580078125,-0.107666015625,-0.927001953125
2,-3.9312977099236637,2.824427480916031,5.755725190839693,0.385498046875,-0.165771484375,-0.98779296875
2,-2.267175572519084,5.8244274809160315,2.129770992366412,0.291748046875,-0.0576171875,-1.138427734375
2,4.419847328244275,4.129770992366412,1.2366412213740459,0.287353515625,-0.12353515625,-0.990234375
2,2.9312977099236637,8.244274809160306,2.480916030534351,0.153564453125,0.00634765625,-0.985107421875
2,2.7022900763358777,4.7328244274809155,-0.4732824427480916,0.271484375,-0.13037109375,-0.85693359375
2,3.0839694656488548,-1.106870229007634,-25.78625954198473,-0.086669921875,-0.5205078125,-1.021240234375
2,-1.129770992366412,-0.6870229007633588,-41.343511450381676,-0.109375,-0.564697265625,-0.81689453125
2,3.854961832061069,0.2442748091603053,-30.20610687022901,0.15283203125,-0.471435546875,-0.83935546875
2,-0.3511450381679389,3.5343511450381677,-2.4198473282442747,0.169189453125,-0.154541015625,-0.909912109375
2,2.992366412213741,5.763358778625954,1.3587786259541987,0.19140625,-0.055419921875,-1.04052734375
2,-0.18320610687022898,4.870229007633588,0.7786259541984732,0.255615234375,-0.1025390625,-0.96728515625
2,-0.7862595419847328,5.190839694656488,1.16793893129771,0.253173828125,-0.078369140625,-0.968994140625
2,-0.1984732824427481,4.061068702290076,2.557251908396946,0.39453125,-0.119873046875,-1.001708984375
2,-1.885496183206107,6.00763358778626,5.030534351145038,0.25048828125,-0.11669921875,-1.039794921875
2,-4.9465648854961835,4.8320610687022905,3.030534351145038,0.396728515625,-0.136474609375,-1.03662109375
2,-1.274809160305344,10.24427480916031,3.458015267175572,0.291748046875,-0.133544921875,-0.937255859375
2,5.00763358778626,4.854961832061068,1.7022900763358781,0.2666015625,-0.212646484375,-0.856201171875
2,5.572519083969466,1.946564885496183,-4.480916030534352,0.216064453125,-0.1708984375,-0.978759765625
2,1.0687022900763359,-1.5572519083969463,-36.08396946564886,-0.178466796875,-0.579345703125,-0.838623046875
2,1.030534351145038,0.2137404580152672,-36.04580152671755,-0.03662109375,-0.43408203125,-1.0322265625
2,1.1145038167938932,2.1908396946564888,-23.290076335877856,-0.00439453125,-0.164306640625,-0.957275390625
2,-1.8167938931297711,7.3969465648854955,2.320610687022901,0.221435546875,-0.01806640625,-1.089111328125
2,-0.9465648854961832,4.557251908396948,0.8015267175572519,0.183349609375,-0.0615234375,-1.0146484375
2,-0.4961832061068702,3.908396946564885,0.8702290076335878,0.171875,-0.06982421875,-0.937744140625
2,0.08396946564885496,6.793893129770992,1.0,0.30859375,-0.113525390625,-0.991943359375
2,0.6030534351145038,3.396946564885496,5.076335877862594,0.448486328125,-0.130615234375,-0.97900390625
2,-0.2519083969465649,3.206106870229008,2.045801526717557,0.423828125,-0.197265625,-0.96044921875
2,-7.122137404580152,5.045801526717558,5.6030534351145045,0.293212890625,-0.02001953125,-0.936767578125
2,-2.6564885496183206,6.763358778625954,1.091603053435114,0.09033203125,0.0908203125,-0.947021484375
2,-1.251908396946565,-1.4274809160305342,1.4122137404580148,0.273681640625,-0.076904296875,-1.244140625
2,5.389312977099237,-5.908396946564887,-27.41221374045801,-0.04736328125,-0.492431640625,-0.972900390625
2,12.77862595419847,-3.679389312977099,-43.11450381679389,-0.147216796875,-0.5390625,-0.935546875
2,1.4122137404580148,3.259541984732825,-11.801526717557248,0.143798828125,-0.245849609375,-0.88330078125
2,-5.8244274809160315,8.16030534351145,1.4656488549618318,0.139404296875,-0.225830078125,-0.954345703125
2,-0.7633587786259542,4.0381679389312986,0.900763358778626,0.1826171875,-0.07373046875,-0.99560546875
2,-0.5801526717557252,5.503816793893129,2.480916030534351,0.3369140625,-0.10009765625,-0.965576171875
2,0.6183206106870229,2.908396946564885,5.572519083969466,0.352294921875,-0.1181640625,-0.867431640625
2,-1.053435114503817,4.099236641221374,3.175572519083969,0.316650390625,-0.200439453125,-0.87158203125
2,-1.709923664122137,0.4274809160305343,0.1068702290076336,0.294677734375,-0.313720703125,-1.026123046875
2,0.7022900763358778,9.80916030534351,2.061068702290076,0.3330078125,-0.12744140625,-0.998291015625
2,-7.541984732824428,4.793893129770993,1.4503816793893132,0.237548828125,-0.08740234375,-1.06494140625
2,6.7251908396946565,-0.7633587786259542,-30.16030534351145,-0.0771484375,-0.563232421875,-0.834716796875
2,-1.1526717557251909,4.351145038167939,-40.6030534351145,-0.079833984375,-0.638427734375,-0.913818359375
2,-1.938931297709924,2.8015267175572522,-23.96946564885496,0.105712890625,-0.23681640625,-1.1123046875
2,0.2366412213740458,5.083969465648855,0.3053435114503817,0.20849609375,-0.052490234375,-1.074462890625
2,4.145038167938932,0.7633587786259542,2.4885496183206106,0.1171875,-0.07373046875,-1.03271484375
2,-0.8320610687022901,3.969465648854962,0.6183206106870229,0.18896484375,-0.05859375,-0.989990234375
2,-0.8931297709923665,4.083969465648855,3.183206106870229,0.35302734375,-0.097900390625,-0.917236328125
2,-0.5190839694656488,3.106870229007634,3.541984732824428,0.292724609375,-0.064208984375,-0.90478515625
2,-3.0839694656488548,1.1984732824427482,4.1603053435114505,0.25244140625,-0.124755859375,-1.080078125
2,-10.732824427480919,8.992366412213743,1.4732824427480917,0.350341796875,-0.08984375,-1.00244140625
2,0.6564885496183206,6.8549618320610675,2.206106870229008,0.298828125,-0.134521484375,-1.158203125
2,2.519083969465649,4.885496183206106,-2.0229007633587788,0.15576171875,-0.17236328125,-0.921875
2,-2.6564885496183206,5.9618320610687014,-37.717557251908396,-0.13671875,-0.56494140625,-1.05419921875
2,7.4809160305343525,-1.885496183206107,-39.1297709923664,-0.05908203125,-0.41650390625,-0.914794921875
2,1.908396946564886,7.610687022900763,-8.755725190839694,0.332275390625,-0.180419921875,-0.890869140625
2,1.793893129770992,2.160305343511451,0.5572519083969466,0.090087890625,-0.06103515625,-0.91552734375
2,-0.36641221374045796,4.3969465648854955,-8.938931297709924,-0.08544921875,-0.114990234375,-1.00439453125
2,-0.3053435114503817,4.145038167938932,0.7328244274809159,0.19287109375,-0.06396484375,-0.99365234375
2,-1.366412213740458,5.534351145038168,2.5343511450381677,0.366943359375,-0.07958984375,-0.9453125
2,-0.8244274809160306,1.954198473282443,1.7862595419847331,0.392333984375,-0.160400390625,-0.779296875
2,-3.6488549618320607,7.1526717557251915,4.3893129770992365,0.36669921875,-0.13671875,-1.052001953125
2,0.3587786259541985,10.3587786259542,4.106870229007634,0.246337890625,-0.091796875,-1.102294921875
2,-3.267175572519084,9.557251908396944,0.9847328244274808,0.311279296875,-0.1376953125,-0.956298828125
2,5.6259541984732815,-0.053435114503816786,-24.88549618320611,-0.005126953125,-0.54931640625,-0.7744140625
2,8.122137404580153,-0.6106870229007634,-37.755725190839705,-0.201416015625,-0.669189453125,-0.970458984375
2,3.1221374045801533,7.8320610687022905,-32.40458015267176,-0.07958984375,-0.505859375,-0.977783203125
2,-3.374045801526718,0.7328244274809159,-2.015267175572519,0.19677734375,-0.16162109375,-1.031494140625
2,-3.4045801526717563,7.4809160305343525,2.839694656488549,-0.05224609375,-0.073486328125,-0.856201171875
2,7.541984732824428,-1.824427480916031,-24.167938931297712,0.002685546875,-0.420166015625,-1.1611328125
2,-0.4351145038167939,3.908396946564885,0.9465648854961832,0.225341796875,-0.0654296875,-0.917236328125
2,-1.297709923664122,4.015267175572519,0.4198473282442748,0.36279296875,-0.1376953125,-0.911865234375
2,0.3816793893129771,3.969465648854962,3.778625954198473,0.401611328125,-0.083251953125,-0.85302734375
2,3.5954198473282437,1.0381679389312979,1.740458015267176,0.1064453125,-0.142822265625,-1.0068359375
2,-5.183206106870228,-1.4656488549618318,5.8244274809160315,0.273193359375,-0.116943359375,-0.850830078125
2,4.5114503816793885,6.8320610687022905,-22.641221374045802,0.052001953125,-0.50927734375,-1.2919921875
2,10.648854961832061,-7.160305343511451,-44.89312977099237,-0.188720703125,-0.663330078125,-1.0859375
2,4.442748091603052,3.618320610687023,-9.748091603053435,0.32958984375,-0.235107421875,-1.078369140625
2,2.33587786259542,10.42748091603053,-0.7251908396946565,0.037353515625,-0.204345703125,-0.92431640625
2,0.8320610687022901,2.427480916030534,-8.305343511450381,-0.072265625,-0.153564453125,-1.036376953125
2,4.3893129770992365,-0.8854961832061069,-24.30534351145038,-0.035400390625,-0.326904296875,-0.995849609375
2,2.6564885496183206,-2.442748091603054,-27.618320610687018,0.00634765625,-0.343017578125,-0.899658203125
2,-0.4122137404580153,4.519083969465648,0.8320610687022901,0.19189453125,-0.07666015625,-0.99853515625
2,-5.251908396946566,9.442748091603056,0.06870229007633588,0.450439453125,-0.080322265625,-0.84619140625
2,-5.0,8.778625954198473,8.793893129770991,0.340087890625,-0.052734375,-0.994140625
2,-1.717557251908397,3.458015267175572,0.4580152671755725,0.39501953125,-0.10546875,-1.0693359375
2,8.664122137404581,10.43511450381679,5.923664122137405,0.38427734375,0.06103515625,-1.14599609375
2,-1.022900763358779,-1.7557251908396951,-17.09160305343512,-0.02490234375,-0.3974609375,-0.7998046875
2,-11.6030534351145,0.8625954198473282,-50.25954198473283,-0.252685546875,-0.74365234375,-0.886474609375
2,-2.618320610687023,1.969465648854962,-11.79389312977099,0.211181640625,-0.090576171875,-1.065673828125
2,2.7557251908396947,4.916030534351145,-1.297709923664122,0.279296875,-0.142333984375,-1.169921875
2,-1.954198473282443,3.435114503816794,-0.8854961832061069,0.0517578125,-0.001708984375,-0.99072265625
2,1.3206106870229009,1.16030534351145,-14.419847328244279,0.00439453125,-0.118408203125,-0.98828125
2,1.4122137404580148,0.03816793893129771,-24.152671755725194,-0.014892578125,-0.272705078125,-0.9716796875
2,-0.8091603053435115,4.175572519083969,0.7328244274809159,0.165771484375,-0.074462890625,-0.996337890625
2,-2.0229007633587788,5.015267175572519,5.8549618320610675,0.3515625,-0.12548828125,-0.978515625
2,-5.496183206106871,0.03053435114503817,4.137404580152672,0.358154296875,-0.09716796875,-0.905029296875
2,-1.5343511450381682,9.580152671755725,6.160305343511451,0.368408203125,-0.135498046875,-0.992431640625
2,0.3206106870229007,2.106870229007634,1.908396946564886,0.095703125,-0.047119140625,-1.102783203125
2,-0.053435114503816786,7.984732824427482,2.908396946564885,0.39501953125,-0.075439453125,-0.884765625
2,3.8091603053435112,6.977099236641222,-1.984732824427481,0.198486328125,-0.123046875,-0.9091796875
2,5.8320610687022905,3.679389312977099,-30.75572519083969,-0.02001953125,-0.446533203125,-1.001708984375
2,3.717557251908397,-2.16793893129771,-40.89312977099237,-0.09765625,-0.533447265625,-0.96044921875
2,-1.580152671755725,0.053435114503816786,-24.519083969465647,0.088134765625,-0.40576171875,-1.033203125
2,1.893129770992366,5.557251908396948,-0.1450381679389313,0.317626953125,0.02880859375,-1.03662109375
2,-0.6564885496183206,5.5954198473282455,5.290076335877862,0.0947265625,-0.052978515625,-1.091796875
2,-0.3893129770992366,4.343511450381679,0.7862595419847328,0.20068359375,-0.09326171875,-1.031494140625
2,0.5190839694656488,3.8778625954198467,3.6717557251908386,0.3515625,-0.115478515625,-0.986083984375
2,-3.2442748091603053,4.778625954198472,3.557251908396946,0.3271484375,-0.102783203125,-0.963134765625
2,1.6793893129770991,4.251908396946565,0.4198473282442748,0.3154296875,-0.12744140625,-1.217041015625
2,-5.30534351145038,7.366412213740458,2.5801526717557253,0.345458984375,-0.047607421875,-1.11865234375
2,-4.412213740458014,11.992366412213741,5.809160305343513,0.200439453125,0.002197265625,-1.01953125
2,-2.4122137404580153,7.106870229007634,0.5419847328244275,0.074462890625,-0.1474609375,-0.862060546875
2,3.015267175572519,-9.282442748091604,-24.68702290076336,-0.098876953125,-0.529052734375,-0.802490234375
2,9.229007633587788,-6.9312977099236655,-45.94656488549618,-0.12841796875,-0.79345703125,-1.021240234375
2,3.946564885496183,-1.610687022900763,-38.755725190839705,-0.1220703125,-0.634033203125,-1.15771484375
2,5.496183206106871,6.183206106870228,-6.3740458015267185,0.27294921875,0.045654296875,-0.97705078125
2,-2.5877862595419847,3.9312977099236637,3.5954198473282437,0.1845703125,-0.0322265625,-0.96044921875
2,-0.3053435114503817,6.206106870229008,0.4274809160305343,0.338134765625,-0.073486328125,-0.9482421875
2,-2.3587786259541983,0.8854961832061069,3.564885496183206,0.27099609375,-0.078125,-0.925048828125
2,-5.122137404580153,5.091603053435113,4.221374045801527,0.388671875,-0.139892578125,-0.998291015625
2,-3.946564885496183,2.1374045801526718,3.8702290076335877,0.21875,-0.001220703125,-0.964599609375
2,-6.900763358778626,5.030534351145038,0.2137404580152672,0.210205078125,-0.09423828125,-1.02587890625
2,-3.1297709923664123,3.717557251908397,0.1908396946564886,0.355712890625,-0.221923828125,-1.0751953125
2,0.7709923664122137,5.694656488549619,-7.473282442748093,0.056396484375,-0.353515625,-1.066162109375
2,5.641221374045801,3.6488549618320607,-28.381679389312982,-0.170654296875,-0.3349609375,-0.89208984375
2,7.5114503816793885,-1.33587786259542,-42.93893129770992,-0.08740234375,-0.501220703125,-1.005126953125
2,7.053435114503817,2.854961832061069,-25.595419847328237,0.064208984375,-0.426513671875,-0.8203125
2,-3.5267175572519083,3.259541984732825,3.259541984732825,0.187744140625,0.06640625,-0.99267578125
2,4.450381679389314,1.2671755725190839,1.656488549618321,0.103515625,-0.130859375,-0.880126953125
2,-0.053435114503816786,6.8473282442748085,3.4198473282442747,0.365966796875,-0.085693359375,-0.949462890625
2,-1.6183206106870232,5.206106870229007,1.709923664122137,0.282958984375,-0.067138671875,-0.908447265625
2,-7.366412213740458,6.2595419847328255,2.381679389312977,0.278564453125,-0.168701171875,-1.038818359375
2,0.5725190839694656,-1.4656488549618318,2.206106870229008,0.1103515625,-0.056396484375,-1.0126953125
2,-1.4427480916030537,8.442748091603054,3.717557251908397,0.252197265625,-0.0234375,-0.999267578125
2,-3.946564885496183,7.694656488549619,0.3053435114503817,0.224853515625,0.027587890625,-0.94189453125
2,-1.1450381679389308,5.282442748091603,-21.44274809160305,0.020751953125,-0.461669921875,-0.913818359375
2,6.687022900763358,5.7404580152671745,-42.091603053435115,-0.092529296875,-0.614013671875,-1.12890625
2,6.3816793893129775,-2.2290076335877864,-41.62595419847328,-0.10791015625,-0.571533203125,-0.947021484375
2,1.221374045801527,-3.091603053435115,-16.66412213740458,-0.0263671875,-0.119873046875,-0.9580078125
2,-3.282442748091603,2.068702290076336,2.7251908396946556,0.341552734375,-0.072998046875,-0.951904296875
2,-3.7633587786259537,0.5877862595419847,3.732824427480916,0.1162109375,-0.084228515625,-1.043212890625
2,0.2900763358778626,5.045801526717558,1.969465648854962,0.3564453125,-0.107666015625,-1.001220703125
2,-3.5954198473282437,4.251908396946565,3.816793893129771,0.374267578125,-0.064208984375,-0.90478515625
2,3.274809160305344,3.7557251908396947,2.030534351145038,0.276611328125,-0.1025390625,-1.04541015625
2,-4.0458015267175576,3.969465648854962,3.1908396946564888,0.27978515625,-0.009033203125,-0.989013671875
2,0.5114503816793893,7.763358778625954,3.732824427480916,0.2802734375,-0.147216796875,-0.99169921875
2,3.0763358778625953,0.4045801526717557,1.923664122137405,0.289794921875,-0.22509765625,-1.066650390625
2,0.3740458015267176,7.083969465648855,0.8931297709923665,0.21240234375,-0.0849609375,-1.0302734375
2,4.3969465648854955,2.374045801526718,-12.51145038167939,0.0703125,-0.507080078125,-1.05029296875
2,3.9312977099236637,-0.2061068702290076,-42.55725190839696,-0.137939453125,-0.7822265625,-0.93896484375
2,-1.9312977099236641,1.5954198473282442,-42.45801526717558,-0.0908203125,-0.4208984375,-1.055908203125
2,-5.870229007633588,3.007633587786259,-17.16793893129771,0.13330078125,-0.254638671875,-0.87353515625
2,-5.465648854961832,-1.175572519083969,2.175572519083969,0.215576171875,-0.0771484375,-1.30615234375
2,-0.7251908396946565,4.534351145038168,1.122137404580153,0.3291015625,-0.119140625,-0.974853515625
2,-0.5801526717557252,3.015267175572519,1.7557251908396951,0.3818359375,-0.103759765625,-0.9833984375
2,-0.2290076335877863,3.3053435114503817,1.9618320610687021,0.314697265625,-0.07666015625,-0.97802734375
2,-3.709923664122138,9.435114503816793,4.221374045801527,0.311767578125,-0.03759765625,-0.89111328125
2,-0.2366412213740458,0.1908396946564886,1.923664122137405,0.225830078125,-0.081298828125,-0.8974609375
2,-0.1755725190839695,5.015267175572519,-0.7480916030534351,0.135986328125,-0.045654296875,-0.9697265625
2,5.763358778625954,7.8473282442748085,1.862595419847328,0.279296875,-0.0771484375,-1.1787109375
2,-1.213740458015267,10.77862595419847,-2.458015267175572,0.412353515625,-0.2216796875,-0.960693359375
2,5.9541984732824424,-3.8778625954198467,-28.061068702290076,-0.160400390625,-0.594970703125,-0.743896484375
2,4.015267175572519,-5.541984732824427,-39.3206106870229,-0.097412109375,-0.578857421875,-0.877197265625
2,3.4198473282442747,-2.786259541984733,-38.68702290076336,-0.110595703125,-0.59423828125,-1.040771484375
2,-1.656488549618321,-5.67175572519084,-14.419847328244279,0.135986328125,-0.190185546875,-0.8740234375
2,-0.8702290076335878,5.145038167938932,1.694656488549618,0.37841796875,-0.10302734375,-1.010986328125
2,0.6717557251908397,2.7557251908396947,4.66412213740458,0.353759765625,-0.083251953125,-0.97119140625
2,-3.5343511450381677,3.9236641221374047,2.4656488549618323,0.422607421875,-0.087890625,-1.06982421875
2,-3.7480916030534353,3.7633587786259537,2.961832061068702,0.3046875,-0.0947265625,-1.01171875
2,-3.2442748091603053,-5.183206106870228,1.6183206106870232,0.155029296875,0.04931640625,-0.854736328125
2,3.16793893129771,0.8625954198473282,0.4580152671755725,0.176025390625,-0.073974609375,-0.91748046875
2,1.4274809160305342,-0.4198473282442748,-0.1374045801526718,0.171875,-0.105712890625,-0.890869140625
2,2.1984732824427478,7.351145038167938,-1.259541984732824,0.3388671875,-0.21337890625,-1.094970703125
2,2.854961832061069,-3.7557251908396947,-25.83969465648855,-0.06689453125,-0.48583984375,-0.95068359375
2,1.4274809160305342,-1.053435114503817,-41.244274809160295,-0.0498046875,-0.547119140625,-0.987060546875
2,6.549618320610688,1.977099236641221,-38.69465648854962,0.01220703125,-0.609375,-1.01904296875
2,3.847328244274809,3.839694656488549,-17.80916030534351,0.22021484375,-0.400146484375,-0.917724609375
2,-1.396946564885496,2.068702290076336,3.0687022900763363,0.345703125,-0.11767578125,-0.955810546875
2,1.015267175572519,4.2824427480916025,4.717557251908397,0.388427734375,-0.105712890625,-0.917724609375
2,-1.175572519083969,4.534351145038168,2.351145038167939,0.16845703125,-0.022216796875,-1.007080078125
2,1.4732824427480917,6.137404580152673,3.7480916030534353,0.295166015625,-0.1640625,-0.94873046875
2,3.0763358778625953,-4.190839694656488,-0.022900763358778633,0.197998046875,-0.166259765625,-0.77490234375
2,-2.213740458015267,-0.7328244274809159,0.6870229007633588,0.185302734375,-0.080322265625,-1.055908203125
2,-2.984732824427481,11.61068702290076,1.610687022900763,0.36865234375,-0.001953125,-1.004638671875
2,-7.801526717557253,4.610687022900763,-0.6946564885496184,0.123779296875,0.058837890625,-0.9208984375
2,-1.190839694656489,3.282442748091603,-15.916030534351151,0.17529296875,-0.4609375,-0.928466796875
2,5.977099236641222,-7.694656488549619,-37.56488549618321,-0.052001953125,-0.50537109375,-0.898193359375
2,3.893129770992366,0.648854961832061,-41.389312977099245,-0.015380859375,-0.55810546875,-1.228759765625
2,-7.4809160305343525,7.67175572519084,-25.99236641221374,0.2880859375,-0.149658203125,-0.9306640625
2,-1.3511450381679388,4.572519083969466,2.0839694656488548,0.378173828125,-0.106201171875,-0.958251953125
2,-0.8320610687022901,2.83206106870229,5.290076335877862,0.393798828125,-0.07421875,-0.986083984375
2,-4.114503816793893,1.083969465648855,3.5267175572519083,0.277587890625,-0.10009765625,-0.94970703125
2,-4.0458015267175576,3.6870229007633593,3.847328244274809,0.346923828125,-0.15185546875,-0.991455078125
2,-0.03816793893129771,-0.7251908396946565,1.6412213740458013,0.1796875,-0.181640625,-0.909912109375
2,-0.6335877862595419,1.076335877862595,0.2824427480916031,0.26611328125,-0.052734375,-0.9013671875
2,6.923664122137405,8.816793893129773,2.549618320610687,0.212646484375,-0.021728515625,-1.367919921875
2,-3.656488549618321,7.702290076335879,1.5877862595419852,0.03564453125,-0.11376953125,-0.80029296875
2,4.32824427480916,3.175572519083969,-19.519083969465647,0.117919921875,-0.373046875,-0.707763671875
2,6.2595419847328255,-3.793893129770992,-34.25954198473283,0.0048828125,-0.564697265625,-0.853515625
2,-0.9389312977099236,-2.885496183206107,-39.45038167938932,-0.120849609375,-0.461669921875,-1.106201171875
2,-1.374045801526718,1.9007633587786261,-24.053435114503824,-0.090087890625,-0.244140625,-0.9248046875
2,-0.5496183206106869,3.2366412213740463,2.66412213740458,0.33935546875,-0.12646484375,-0.9130859375
2,-0.3969465648854962,6.427480916030534,2.458015267175572,0.39013671875,-0.133544921875,-1.023193359375
2,0.7404580152671756,3.9160305343511452,2.839694656488549,0.473388671875,-0.200927734375,-1.1171875
2,-2.007633587786259,5.122137404580153,1.885496183206107,0.275146484375,-0.1240234375,-0.95751953125
2,0.9389312977099236,0.7404580152671756,1.2671755725190839,0.174072265625,-0.154296875,-0.978515625
2,0.8244274809160306,7.244274809160307,1.656488549618321,0.209716796875,-0.027099609375,-0.960693359375
2,0.03053435114503817,3.3282442748091614,0.6030534351145038,0.133056640625,-0.09521484375,-0.84912109375
2,-1.7633587786259541,2.7480916030534353,1.610687022900763,0.21484375,-0.126220703125,-1.233154296875
2,-1.16030534351145,5.106870229007634,-19.7175572519084,-0.0400390625,-0.283447265625,-0.974365234375
2,6.442748091603052,-3.816793893129771,-34.09160305343512,-0.1064453125,-0.34326171875,-0.90380859375
2,0.4580152671755725,-0.931297709923664,-29.53435114503817,0.177490234375,-0.33251953125,-0.99169921875
2,-0.8854961832061069,6.702290076335879,-14.15267175572519,0.159912109375,-0.2578125,-0.9921875
2,-0.9694656488549618,5.801526717557253,0.6870229007633588,0.331298828125,-0.112060546875,-1.0126953125
2,0.8091603053435115,5.748091603053435,2.549618320610687,0.3291015625,-0.084716796875,-0.997802734375
2,-1.748091603053435,3.229007633587786,2.3587786259541983,0.374267578125,-0.0673828125,-0.9765625
2,-2.717557251908397,1.854961832061069,1.8167938931297711,0.228759765625,-0.135986328125,-1.054443359375
2,-0.8625954198473282,2.3969465648854964,0.1297709923664122,0.284912109375,-0.099853515625,-0.9404296875
2,4.786259541984733,4.854961832061068,1.923664122137405,0.40478515625,-0.19384765625,-1.077392578125
2,-5.5190839694656475,5.496183206106871,0.8854961832061069,0.218505859375,-0.061767578125,-0.854736328125
2,-3.4732824427480917,-1.6412213740458013,-1.076335877862595,0.0966796875,-0.098876953125,-0.91943359375
2,-5.839694656488549,-7.687022900763358,-14.198473282442752,-0.13037109375,-0.442138671875,-0.9931640625
2,2.3587786259541983,-5.1526717557251915,-24.88549618320611,-0.130126953125,-0.309814453125,-0.958740234375
2,-2.068702290076336,5.809160305343513,-26.02290076335878,-0.036376953125,-0.2255859375,-0.94091796875
2,3.0992366412213737,-2.183206106870229,-24.79389312977099,0.08203125,-0.382568359375,-0.97705078125
2,-1.259541984732824,4.4885496183206115,0.9465648854961832,0.246337890625,-0.0791015625,-1.000732421875
2,-1.16793893129771,4.419847328244275,0.9541984732824428,0.367919921875,-0.122802734375,-0.93505859375
2,-2.8015267175572522,5.045801526717558,1.748091603053435,0.430419921875,-0.15087890625,-0.9453125
2,1.793893129770992,4.572519083969466,0.015267175572519082,0.2939453125,-0.11181640625,-0.90380859375
2,-0.5877862595419847,4.480916030534352,1.5648854961832062,0.374267578125,-0.1787109375,-0.9150390625
2,-4.885496183206106,7.419847328244275,0.9770992366412212,0.274169921875,-0.048095703125,-1.013671875
2,2.816793893129771,2.66412213740458,1.633587786259542,0.363037109375,-0.19775390625,-0.982177734375
2,-1.053435114503817,4.7328244274809155,1.053435114503817,0.143310546875,-0.010009765625,-0.93798828125
2,-2.9770992366412212,3.6488549618320607,1.190839694656489,0.2001953125,-0.083984375,-0.88232421875
2,5.893129770992366,1.610687022900763,-10.40458015267176,0.112548828125,-0.216796875,-0.88916015625
2,5.877862595419848,0.04580152671755725,-28.015267175572518,0.115234375,-0.59326171875,-1.011962890625
2,2.160305343511451,-2.267175572519084,-33.045801526717554,0.08154296875,-0.509033203125,-0.9814453125
2,0.3206106870229007,5.687022900763358,0.5190839694656488,0.32080078125,-0.116455078125,-0.939453125
2,-0.6946564885496184,4.549618320610686,0.18320610687022898,0.341552734375,-0.131591796875,-1.0185546875
2,-2.33587786259542,4.496183206106871,-0.4045801526717557,0.2734375,-0.081787109375,-0.96142578125
2,-4.427480916030534,4.961832061068702,0.5648854961832062,0.318359375,-0.100341796875,-0.915771484375
2,-6.816793893129772,4.923664122137406,0.3282442748091603,0.152587890625,-0.105224609375,-1.056640625
2,-4.305343511450381,0.6641221374045801,1.0381679389312979,0.1708984375,-0.017822265625,-1.03564453125
2,-1.419847328244275,3.9770992366412212,0.3816793893129771,0.230224609375,-0.13037109375,-0.872802734375
2,-9.335877862595419,6.839694656488549,-0.2290076335877863,0.18408203125,-0.071044921875,-1.0810546875
2,-0.7938931297709924,7.106870229007634,-22.847328244274806,-0.055908203125,-0.2587890625,-0.9462890625
2,2.351145038167939,0.4198473282442748,-28.038167938931302,0.0751953125,-0.424560546875,-0.885498046875
2,1.709923664122137,11.580152671755721,-30.00763358778626,0.1767578125,-0.518310546875,-1.2041015625
2,3.442748091603054,3.4656488549618323,-22.633587786259536,0.25,-0.22900390625,-0.994140625
2,-4.2671755725190845,8.198473282442748,2.091603053435115,0.4296875,-0.102294921875,-1.010986328125
2,-4.595419847328245,3.725190839694656,2.3435114503816794,0.28857421875,-0.06982421875,-0.965087890625
2,-1.3816793893129773,4.2671755725190845,0.8778625954198473,0.31201171875,-0.134765625,-1.024658203125
2,-1.969465648854962,3.0458015267175567,0.7938931297709924,0.284423828125,-0.1025390625,-1.0400390625
2,-2.839694656488549,4.908396946564887,1.2671755725190839,0.3583984375,-0.13623046875,-1.064453125
2,3.778625954198473,2.519083969465649,1.6793893129770991,0.1796875,-0.10546875,-0.931640625
2,5.022900763358779,-4.137404580152672,-8.717557251908397,0.0693359375,-0.25341796875,-0.93896484375
2,7.0381679389312986,2.6412213740458017,-26.145038167938928,-0.019775390625,-0.4990234375,-1.021728515625
2,9.648854961832061,-5.068702290076335,-31.641221374045802,-0.220703125,-0.5556640625,-1.021728515625
2,4.977099236641221,5.312977099236641,-32.618320610687014,0.366943359375,-0.5791015625,-1.167236328125
2,-6.015267175572518,3.458015267175572,-22.503816793893126,0.11962890625,-0.24609375,-0.8994140625
2,-5.8320610687022905,9.679389312977099,-7.877862595419848,0.047119140625,-0.123291015625,-0.966064453125
2,-0.7251908396946565,4.190839694656488,0.9236641221374046,0.1796875,-0.07275390625,-0.994140625
2,-1.0610687022900758,4.145038167938932,0.7786259541984732,0.18017578125,-0.080322265625,-0.975830078125
2,-0.8015267175572519,4.083969465648855,0.8091603053435115,0.1865234375,-0.073974609375,-0.98583984375
2,-0.4122137404580153,4.091603053435114,0.4351145038167939,0.178955078125,-0.090576171875,-0.993408203125
2,-0.5877862595419847,4.099236641221374,0.6946564885496184,0.18408203125,-0.073486328125,-1.00146484375
2,-0.7251908396946565,3.946564885496183,1.0381679389312979,0.182861328125,-0.07177734375,-0.990966796875
2,-0.8244274809160306,4.1526717557251915,0.7938931297709924,0.183837890625,-0.080078125,-1.004150390625
2,-0.3969465648854962,4.0,0.7633587786259542,0.199951171875,-0.066162109375,-0.979248046875
2,-0.7404580152671756,4.412213740458014,0.7862595419847328,0.17529296875,-0.07861328125,-0.9970703125
2,-0.9465648854961832,4.297709923664122,0.9847328244274808,0.19384765625,-0.06884765625,-0.97607421875
2,-0.7480916030534351,3.9312977099236637,0.5801526717557252,0.17626953125,-0.07568359375,-0.988525390625
2,-0.8778625954198473,4.343511450381679,1.045801526717557,0.192626953125,-0.055908203125,-0.991455078125
3,-0.4961832061068702,2.5114503816793894,0.7022900763358778,0.226806640625,-0.13232421875,-1.010498046875
3,-1.519083969465649,2.83206106870229,-1.2442748091603049,0.331298828125,-0.145751953125,-0.998291015625
3,0.6793893129770993,3.206106870229008,-0.2290076335877863,0.431396484375,-0.209716796875,-1.004150390625
3,0.053435114503816786,9.244274809160306,2.893129770992366,0.3701171875,-0.06201171875,-0.901123046875
3,-0.6641221374045801,8.030534351145038,0.9618320610687024,0.364990234375,-0.13232421875,-1.001220703125
3,3.66412213740458,1.137404580152672,-0.816793893129771,0.19091796875,-0.080810546875,-0.89111328125
3,-1.83206106870229,0.015267175572519082,0.4503816793893129,0.00146484375,-0.173828125,-1.040283203125
3,-4.3893129770992365,1.305343511450382,-1.129770992366412,0.26806640625,-0.111572265625,-0.996826171875
3,-0.2595419847328244,2.312977099236641,0.053435114503816786,0.345947265625,-0.113525390625,-0.972412109375
3,-2.6335877862595423,3.091603053435115,4.938931297709924,0.099853515625,0.098876953125,-0.89794921875
3,-4.1679389312977095,9.412213740458014,24.274809160305338,0.1162109375,0.244140625,-1.12548828125
3,-5.045801526717558,-3.2977099236641223,37.923664122137396,0.176025390625,0.49560546875,-1.023681640625
3,-9.473282442748092,4.824427480916031,40.45801526717558,0.15478515625,0.652099609375,-0.760498046875
3,-0.7709923664122137,8.954198473282442,13.427480916030529,0.372802734375,0.000244140625,-0.943359375
3,-0.3587786259541985,4.1679389312977095,1.137404580152672,0.19384765625,-0.08642578125,-0.98583984375
3,4.251908396946565,0.08396946564885496,0.7404580152671756,0.324462890625,-0.19287109375,-0.878662109375
3,-0.6564885496183206,3.4274809160305337,-0.8778625954198473,0.326904296875,-0.169189453125,-0.94775390625
3,-2.053435114503817,2.458015267175572,1.251908396946565,0.3974609375,-0.103515625,-0.98095703125
3,0.3053435114503817,-1.129770992366412,0.5648854961832062,0.37060546875,-0.1787109375,-0.954833984375
3,0.3282442748091603,0.022900763358778633,-0.6870229007633588,0.184814453125,-0.13818359375,-1.025146484375
3,0.3053435114503817,3.770992366412214,1.007633587786259,0.228271484375,-0.26904296875,-1.095458984375
3,-1.374045801526718,7.412213740458015,-3.3511450381679393,0.392333984375,-0.198486328125,-0.9794921875
3,-3.4122137404580153,6.610687022900763,0.6793893129770993,0.32861328125,-0.096435546875,-0.835205078125
3,-7.0458015267175576,1.129770992366412,6.709923664122138,0.246826171875,0.090576171875,-0.83740234375
3,-5.312977099236641,11.587786259541991,32.11450381679389,0.2783203125,0.3720703125,-1.125
3,-10.007633587786259,9.412213740458014,41.015267175572525,0.18115234375,0.498046875,-1.0078125
3,-2.0839694656488548,4.2824427480916025,33.618320610687014,0.253173828125,0.180908203125,-1.148681640625
3,0.2290076335877863,4.954198473282442,15.06870229007634,0.371826171875,0.0634765625,-1.029296875
3,-0.2748091603053435,5.763358778625954,0.4885496183206107,0.20361328125,-0.121826171875,-1.002685546875
3,-3.908396946564885,3.839694656488549,1.16030534351145,0.392333984375,-0.161376953125,-0.924072265625
3,1.916030534351145,2.83206106870229,1.030534351145038,0.405517578125,-0.19580078125,-0.939453125
3,-1.022900763358779,4.480916030534352,0.5725190839694656,0.37109375,-0.128173828125,-1.0087890625
3,-0.2137404580152672,-3.320610687022901,0.4961832061068702,0.163818359375,-0.05859375,-0.86572265625
3,1.908396946564886,1.954198473282443,1.274809160305344,0.1650390625,-0.21484375,-0.952392578125
3,1.8778625954198471,1.190839694656489,-5.213740458015267,0.23486328125,-0.215576171875,-0.9443359375
3,-7.7175572519083975,5.083969465648855,1.6183206106870232,0.235595703125,-0.087890625,-1.0234375
3,-9.847328244274811,1.9312977099236641,24.274809160305338,0.247314453125,0.500732421875,-1.021728515625
3,-0.3129770992366412,8.664122137404581,38.95419847328245,0.187744140625,0.486572265625,-0.963134765625
3,-2.740458015267175,-10.351145038167939,36.47328244274809,0.111083984375,0.489990234375,-0.7939453125
3,3.152671755725191,0.1526717557251908,18.87022900763359,0.3359375,0.26904296875,-0.943603515625
3,-2.3969465648854964,14.412213740458009,14.55725190839695,0.388427734375,-0.097900390625,-1.092529296875
3,0.1908396946564886,-0.7480916030534351,23.366412213740464,0.113525390625,0.356201171875,-0.8330078125
3,-0.9770992366412212,4.427480916030534,0.7786259541984732,0.190673828125,-0.095947265625,-0.98095703125
3,-0.7251908396946565,4.366412213740458,0.8244274809160306,0.193115234375,-0.087890625,-0.991943359375
3,-0.5725190839694656,4.503816793893129,1.6717557251908401,0.34033203125,-0.139404296875,-0.94873046875
3,1.83206106870229,0.7175572519083969,1.2442748091603049,0.33740234375,-0.128662109375,-0.947265625
3,-3.4198473282442747,5.7328244274809155,2.0229007633587788,0.34521484375,-0.178466796875,-0.95556640625
3,1.030534351145038,2.984732824427481,1.4961832061068703,0.370361328125,-0.142578125,-0.90234375
3,-2.816793893129771,-5.67175572519084,0.6183206106870229,0.06396484375,-0.0751953125,-1.008056640625
3,-2.816793893129771,2.6030534351145036,-1.122137404580153,0.060791015625,-0.086181640625,-0.932861328125
3,-2.793893129770992,4.519083969465648,-0.1221374045801527,0.3203125,-0.14501953125,-1.01171875
3,-1.137404580152672,5.183206106870228,-1.022900763358779,0.2841796875,-0.178466796875,-0.95556640625
3,-4.2595419847328255,6.351145038167938,18.6793893129771,0.21484375,0.31640625,-1.040283203125
3,-6.33587786259542,4.404580152671755,36.48091603053435,0.154296875,0.495361328125,-1.00537109375
3,-7.022900763358778,13.15267175572519,40.33587786259542,0.352294921875,0.2744140625,-1.00244140625
3,-4.916030534351145,7.320610687022902,18.44274809160305,0.29833984375,0.156982421875,-0.818359375
3,-1.122137404580153,3.625954198473282,0.2977099236641221,0.199951171875,-0.106201171875,-0.990234375
3,-0.8244274809160306,4.251908396946565,0.9083969465648856,0.196044921875,-0.10205078125,-0.9921875
3,-0.6641221374045801,5.641221374045801,1.16030534351145,0.31640625,-0.11962890625,-0.98095703125
3,-1.778625954198473,4.969465648854962,0.916030534351145,0.355712890625,-0.132080078125,-1.002685546875
3,1.480916030534351,3.145038167938931,-0.8778625954198473,0.32861328125,-0.193359375,-0.893798828125
3,3.442748091603054,2.519083969465649,1.1526717557251909,0.43701171875,-0.128173828125,-0.92333984375
3,-5.786259541984732,4.290076335877862,1.4274809160305342,0.273681640625,-0.054443359375,-1.056640625
3,1.8473282442748091,6.8549618320610675,0.9083969465648856,0.2080078125,-0.111083984375,-0.94921875
3,0.1679389312977099,4.00763358778626,-1.5572519083969463,0.314453125,-0.150390625,-0.930908203125
3,0.7328244274809159,2.50381679389313,-0.6641221374045801,0.29052734375,-0.09619140625,-0.91015625
3,-4.961832061068702,6.7175572519083975,13.16030534351145,0.27490234375,0.237548828125,-1.005859375
3,-2.236641221374046,7.106870229007634,39.41984732824427,0.23388671875,0.59326171875,-0.92578125
3,-1.984732824427481,-1.4351145038167938,35.51908396946565,0.244384765625,0.453857421875,-0.889892578125
3,3.0,6.137404580152673,15.32824427480916,0.44482421875,-0.1025390625,-1.32861328125
3,1.6717557251908401,4.2748091603053435,0.8473282442748091,0.237060546875,-0.110595703125,-1.011474609375
3,-0.900763358778626,3.488549618320611,0.6870229007633588,0.192626953125,-0.095458984375,-0.967529296875
3,0.2213740458015267,5.198473282442748,-0.1450381679389313,0.392333984375,-0.181884765625,-0.907958984375
3,-2.3435114503816794,3.0763358778625953,-1.4122137404580148,0.382080078125,-0.15576171875,-1.050537109375
3,0.7480916030534351,5.8244274809160315,2.038167938931298,0.34130859375,-0.0771484375,-0.9580078125
3,-9.106870229007633,10.297709923664119,2.610687022900763,0.358154296875,-0.10205078125,-1.008544921875
3,-12.6412213740458,7.3740458015267185,3.603053435114504,0.16552734375,-0.04736328125,-0.99755859375
3,-1.137404580152672,3.2519083969465647,0.4274809160305343,0.3603515625,-0.21923828125,-1.115966796875
3,-1.66412213740458,7.0687022900763345,0.2977099236641221,0.20556640625,-0.149169921875,-1.03173828125
3,-7.473282442748093,8.534351145038169,9.732824427480915,0.193115234375,0.084716796875,-0.912841796875
3,-11.16030534351145,4.0381679389312986,32.3969465648855,0.2744140625,0.514892578125,-1.07275390625
3,1.1450381679389308,4.541984732824427,38.11450381679389,0.275390625,0.47705078125,-0.95458984375
3,-4.198473282442748,5.8320610687022905,26.7175572519084,0.20556640625,0.165771484375,-1.00927734375
3,-4.6030534351145045,4.618320610687022,12.137404580152669,0.176025390625,-0.0048828125,-1.091552734375
3,-0.8396946564885496,4.1526717557251915,1.0610687022900758,0.181640625,-0.11474609375,-0.9814453125
3,-0.7786259541984732,3.786259541984733,0.7099236641221374,0.158203125,-0.07861328125,-0.920654296875
3,0.4427480916030535,3.1221374045801533,-0.3816793893129771,0.331787109375,-0.16162109375,-1.033447265625
3,-0.09923664122137403,2.221374045801527,-1.2442748091603049,0.28759765625,-0.165283203125,-0.8203125
3,-4.961832061068702,5.122137404580153,-1.8702290076335881,0.369384765625,-0.094970703125,-0.78076171875
3,2.099236641221374,4.931297709923665,1.824427480916031,0.386962890625,-0.159423828125,-0.936767578125
3,-3.0,9.16030534351145,0.7786259541984732,0.230712890625,-0.075927734375,-1.091064453125
3,1.519083969465649,7.389312977099237,-1.3282442748091599,0.37158203125,-0.291015625,-1.060791015625
3,-5.5114503816793885,2.969465648854962,1.740458015267176,0.307373046875,-0.062744140625,-0.888671875
3,-9.099236641221372,4.2748091603053435,9.732824427480915,0.243896484375,0.09765625,-1.114013671875
3,-6.206106870229008,6.022900763358778,39.78625954198473,0.13427734375,0.461181640625,-1.1796875
3,-0.6030534351145038,8.19083969465649,42.923664122137396,0.440185546875,0.446044921875,-1.252685546875
3,-0.6641221374045801,-3.8015267175572522,12.755725190839689,0.27685546875,-0.098388671875,-0.66162109375
3,-1.129770992366412,2.992366412213741,3.6488549618320607,0.160400390625,0.008544921875,-0.711669921875
3,-0.3129770992366412,4.473282442748092,1.045801526717557,0.171875,-0.097412109375,-1.00048828125
3,1.7328244274809161,5.068702290076335,-0.1374045801526718,0.393798828125,-0.18603515625,-0.926513671875
3,0.022900763358778633,5.068702290076335,1.007633587786259,0.411376953125,-0.098388671875,-0.93310546875
3,-2.068702290076336,5.648854961832062,2.374045801526718,0.40576171875,-0.14306640625,-0.85498046875
3,-2.6030534351145036,7.251908396946565,2.8625954198473282,0.326171875,-0.063232421875,-1.059814453125
3,-4.2748091603053435,-0.1221374045801527,-1.8778625954198471,0.050537109375,-0.118408203125,-1.09619140625
3,-4.6412213740458,3.267175572519084,-2.5114503816793894,0.259033203125,-0.201171875,-0.9365234375
3,-2.5114503816793894,11.702290076335881,-1.9312977099236641,0.41259765625,-0.1953125,-1.128173828125
3,-3.3664122137404577,6.3816793893129775,19.061068702290076,0.0830078125,0.29736328125,-1.00146484375
3,-7.2748091603053435,10.801526717557248,37.93893129770992,0.401123046875,0.336181640625,-1.161865234375
3,-5.7328244274809155,2.9541984732824433,38.1297709923664,0.321044921875,0.385498046875,-0.78369140625
3,2.49618320610687,-1.3816793893129773,13.351145038167939,0.132568359375,-0.229736328125,-1.00732421875
3,-7.419847328244275,-0.1297709923664122,1.396946564885496,-0.004150390625,-0.077392578125,-1.149169921875
3,-0.07633587786259542,7.610687022900763,11.297709923664119,0.201416015625,0.0830078125,-1.04443359375
3,-0.7022900763358778,4.305343511450381,1.076335877862595,0.165771484375,-0.0810546875,-0.999755859375
3,-0.4961832061068702,5.5114503816793885,0.8473282442748091,0.3134765625,-0.1298828125,-0.98583984375
3,-1.1526717557251909,2.9770992366412212,-1.954198473282443,0.3232421875,-0.13671875,-0.962890625
3,-0.2900763358778626,2.893129770992366,0.3206106870229007,0.384765625,-0.14599609375,-1.0166015625
3,-2.6946564885496183,4.099236641221374,-0.9694656488549618,0.3251953125,-0.177490234375,-1.02734375
3,-4.0534351145038165,2.6946564885496183,2.099236641221374,0.19970703125,0.012939453125,-0.919677734375
3,0.09923664122137403,8.297709923664122,0.2213740458015267,0.280517578125,-0.193359375,-1.03271484375
3,-0.4656488549618321,3.610687022900763,0.9618320610687024,0.295166015625,-0.2294921875,-1.011474609375
3,-2.16793893129771,5.33587786259542,21.480916030534353,0.253662109375,0.348876953125,-1.094482421875
3,-5.770992366412214,-1.8167938931297711,41.00763358778626,0.243896484375,0.526611328125,-0.876708984375
3,-2.274809160305344,7.083969465648855,32.45038167938932,0.371337890625,0.24951171875,-1.136474609375
3,0.4732824427480916,2.091603053435115,11.572519083969471,0.0869140625,0.139404296875,-1.029296875
3,-3.709923664122138,8.916030534351146,13.519083969465651,0.257568359375,0.213623046875,-0.92236328125
3,-3.053435114503817,0.648854961832061,23.10687022900763,-0.0146484375,0.27685546875,-0.8974609375
3,-0.7480916030534351,4.122137404580153,0.3435114503816794,0.277587890625,-0.105712890625,-0.931396484375
3,-1.251908396946565,3.267175572519084,-4.022900763358779,0.32421875,-0.17333984375,-0.9951171875
3,-0.8396946564885496,5.320610687022901,-1.656488549618321,0.377685546875,-0.160888671875,-0.810302734375
3,-3.6488549618320607,6.122137404580152,2.267175572519084,0.3525390625,-0.130126953125,-1.0966796875
3,1.6717557251908401,1.603053435114504,1.045801526717557,0.299560546875,-0.2060546875,-1.076171875
3,0.816793893129771,-1.251908396946565,3.839694656488549,0.105224609375,0.01318359375,-0.889404296875
3,-0.900763358778626,4.0534351145038165,1.9007633587786261,0.3583984375,-0.169677734375,-0.986083984375
3,-6.412213740458015,6.076335877862595,4.183206106870228,0.23486328125,-0.022705078125,-0.713623046875
3,-5.1526717557251915,7.801526717557253,31.26717557251908,0.23681640625,0.490966796875,-1.15966796875
3,-5.977099236641222,-2.679389312977099,40.83969465648855,0.18896484375,0.424560546875,-0.82470703125
3,-5.6030534351145045,5.67175572519084,19.564885496183212,0.18603515625,0.029296875,-0.91552734375
3,-9.893129770992367,6.549618320610688,8.778625954198473,0.298828125,0.13525390625,-1.181396484375
3,-0.06106870229007633,-3.732824427480916,13.6412213740458,0.001953125,0.071044921875,-0.821044921875
3,-0.4732824427480916,-0.916030534351145,21.0,-0.06005859375,0.230224609375,-1.032470703125
3,-0.931297709923664,4.076335877862595,0.7557251908396947,0.19873046875,-0.086669921875,-0.9892578125
3,-1.221374045801527,3.770992366412214,0.916030534351145,0.194580078125,-0.097412109375,-0.9873046875
3,-0.08396946564885496,3.786259541984733,-0.1374045801526718,0.346435546875,-0.1640625,-0.947265625
3,0.6946564885496184,2.8091603053435104,0.5114503816793893,0.385009765625,-0.175048828125,-0.907958984375
3,5.648854961832062,1.419847328244275,1.8473282442748091,0.31787109375,-0.063232421875,-0.898681640625
3,0.8091603053435115,-1.778625954198473,0.9236641221374046,0.122314453125,-0.12646484375,-0.907470703125
3,1.091603053435114,6.320610687022902,1.206106870229008,0.443115234375,-0.17529296875,-1.13232421875
3,-0.7099236641221374,4.061068702290076,1.7022900763358781,0.260986328125,-0.22265625,-0.98095703125
3,-0.6412213740458015,0.5954198473282443,1.3206106870229009,0.24462890625,-0.15576171875,-1.1376953125
3,-13.0381679389313,-0.06870229007633588,24.87786259541985,0.076904296875,0.4306640625,-0.897216796875
3,-11.572519083969471,1.4045801526717558,45.44274809160305,0.13623046875,0.39501953125,-0.935791015625
3,-14.297709923664119,4.862595419847328,33.14503816793893,0.188720703125,0.131591796875,-0.86767578125
3,4.587786259541986,4.122137404580153,4.900763358778626,0.140869140625,0.03857421875,-1.007568359375
3,1.625954198473282,6.908396946564887,7.2748091603053435,0.072509765625,0.27685546875,-0.844970703125
3,-0.2595419847328244,4.870229007633588,1.1450381679389308,0.205810546875,-0.094482421875,-0.989501953125
3,-3.6335877862595423,4.358778625954199,1.106870229007634,0.225830078125,-0.09619140625,-0.950439453125
3,-0.648854961832061,2.610687022900763,0.8244274809160306,0.384765625,-0.142822265625,-0.883544921875
3,-3.1221374045801533,1.969465648854962,1.3282442748091599,0.30810546875,-0.20751953125,-0.99658203125
3,0.8549618320610687,5.900763358778626,2.5877862595419847,0.305419921875,-0.119384765625,-0.964111328125
3,2.152671755725191,-0.5877862595419847,0.3129770992366412,0.100830078125,-0.048095703125,-0.848388671875
3,1.374045801526718,0.3358778625954199,-0.816793893129771,0.25390625,-0.07568359375,-0.887939453125
3,-2.7480916030534353,0.9770992366412212,0.7557251908396947,0.10107421875,-0.0244140625,-0.964599609375
3,-9.496183206106869,11.68702290076336,30.45801526717557,0.277587890625,0.3427734375,-1.003662109375
3,-12.244274809160311,14.320610687022901,42.969465648854964,0.347412109375,0.4443359375,-1.066650390625
3,2.671755725190839,6.343511450381678,20.091603053435122,0.367431640625,0.179443359375,-0.9990234375
3,-6.763358778625954,0.8854961832061069,10.22137404580153,-0.009521484375,0.197509765625,-0.861083984375
3,-2.458015267175572,4.519083969465648,27.20610687022901,0.24853515625,0.345703125,-1.09130859375
3,-5.633587786259542,-0.6870229007633588,26.54961832061069,0.1025390625,0.247314453125,-0.806884765625
3,-0.8549618320610687,4.122137404580153,0.6412213740458015,0.142822265625,-0.089599609375,-0.99853515625
3,0.7786259541984732,3.114503816793893,-0.6106870229007634,0.412841796875,-0.16845703125,-0.9541015625
3,-2.015267175572519,7.213740458015268,1.5038167938931297,0.462890625,-0.182861328125,-1.054931640625
3,-5.648854961832062,8.419847328244275,4.534351145038168,0.4072265625,0.0009765625,-1.04052734375
3,1.091603053435114,2.442748091603054,-0.5419847328244275,0.10595703125,-0.188232421875,-1.024169921875
3,1.4427480916030537,6.702290076335879,-2.114503816793893,0.27685546875,-0.2236328125,-1.145751953125
3,-0.9923664122137404,-1.1145038167938932,-1.519083969465649,0.11962890625,-0.1953125,-0.92529296875
3,-10.664122137404581,4.969465648854962,30.99236641221374,0.24462890625,0.384765625,-0.977783203125
3,-0.1603053435114504,6.503816793893129,41.77099236641222,0.28662109375,0.333251953125,-1.06005859375
3,0.6335877862595419,9.618320610687023,17.68702290076336,0.288818359375,0.017333984375,-1.00732421875
3,-2.709923664122138,4.809160305343512,6.236641221374046,0.205078125,-0.201416015625,-1.10498046875
3,6.312977099236642,4.2748091603053435,2.671755725190839,0.061767578125,-0.113525390625,-0.81591796875
3,-1.1526717557251909,4.786259541984733,18.6030534351145,0.200439453125,0.106689453125,-1.2021484375
3,-0.1679389312977099,3.9007633587786263,30.595419847328237,0.126953125,0.239013671875,-0.961181640625
3,-1.137404580152672,4.099236641221374,0.7709923664122137,0.17724609375,-0.096923828125,-0.99365234375
3,1.6488549618320612,3.396946564885496,0.9618320610687024,0.16455078125,-0.084716796875,-1.013427734375
3,-0.4809160305343512,4.900763358778626,0.5496183206106869,0.355712890625,-0.157958984375,-0.97265625
3,0.4503816793893129,0.2366412213740458,-0.648854961832061,0.3642578125,-0.149169921875,-0.85791015625
3,0.6641221374045801,3.061068702290076,1.6488549618320612,0.32568359375,-0.173095703125,-1.025146484375
3,-0.6870229007633588,-0.1221374045801527,1.206106870229008,0.269287109375,-0.04931640625,-0.942138671875
3,0.916030534351145,2.183206106870229,-0.1068702290076336,0.3056640625,-0.154296875,-0.888427734375
3,2.4656488549618323,7.870229007633588,1.076335877862595,0.3994140625,-0.08984375,-0.978759765625
3,-0.3358778625954199,9.687022900763358,28.41984732824427,0.295166015625,0.425048828125,-1.286376953125
3,-8.786259541984732,12.93129770992366,43.48854961832061,0.252197265625,0.607177734375,-0.9658203125
3,-7.3740458015267185,6.114503816793892,13.76335877862596,0.249267578125,0.123046875,-0.959228515625
3,-6.129770992366412,3.7633587786259537,6.412213740458015,-0.13623046875,0.130126953125,-0.86181640625
3,-1.633587786259542,3.374045801526718,9.580152671755725,-0.15087890625,0.08837890625,-0.897216796875
3,-2.8091603053435104,6.564885496183206,7.7175572519083975,0.103759765625,0.006103515625,-1.08740234375
3,-0.6259541984732825,4.229007633587786,1.015267175572519,0.172607421875,-0.092041015625,-0.994384765625
3,-0.26717557251908397,4.412213740458014,1.030534351145038,0.188232421875,-0.098876953125,-0.98828125
3,0.8854961832061069,6.541984732824428,1.2366412213740459,0.41943359375,-0.1630859375,-0.95458984375
3,0.6641221374045801,1.893129770992366,0.3587786259541985,0.30029296875,-0.094970703125,-0.8125
3,1.1832061068702289,2.4198473282442747,0.7938931297709924,0.36376953125,-0.23681640625,-0.890380859375
3,-1.946564885496183,4.503816793893129,0.3435114503816794,0.1455078125,-0.1279296875,-0.99072265625
3,-0.6870229007633588,3.816793893129771,-0.4809160305343512,0.347412109375,-0.107666015625,-0.908203125
3,-8.251908396946565,10.08396946564885,8.854961832061068,0.3525390625,0.136962890625,-1.00927734375
3,-5.526717557251909,9.122137404580153,40.48091603053435,0.28662109375,0.7685546875,-1.14794921875
3,-4.33587786259542,-2.0,31.56488549618321,0.279296875,0.411865234375,-1.202392578125
3,-0.5190839694656488,10.587786259541991,10.480916030534349,0.31982421875,0.019287109375,-1.0166015625
3,-3.0839694656488548,16.79389312977099,18.11450381679389,-0.0634765625,0.47216796875,-0.93505859375
3,-6.526717557251907,8.374045801526718,28.87022900763359,0.283203125,0.266845703125,-1.230712890625
3,0.1297709923664122,4.229007633587786,24.480916030534353,0.214111328125,0.077392578125,-1.078369140625
3,-2.145038167938931,6.816793893129772,2.236641221374046,0.44091796875,-0.126953125,-0.934326171875
3,-0.6412213740458015,0.053435114503816786,2.145038167938931,0.441162109375,-0.199951171875,-0.857177734375
3,-1.3511450381679388,4.022900763358779,-1.305343511450382,0.212646484375,-0.150390625,-0.889404296875
3,2.221374045801527,0.5496183206106869,-0.8320610687022901,0.291748046875,-0.219482421875,-1.0224609375
3,2.129770992366412,3.984732824427481,-0.5572519083969466,0.27099609375,-0.0078125,-0.856201171875
3,2.839694656488549,5.435114503816794,0.4809160305343512,0.22119140625,-0.217529296875,-1.1416015625
3,3.557251908396946,8.83206106870229,8.961832061068701,0.16064453125,0.041748046875,-0.949951171875
3,-5.6259541984732815,7.8473282442748085,32.90839694656488,0.218017578125,0.38037109375,-1.0
3,-9.34351145038168,0.6106870229007634,39.66412213740458,0.279296875,0.3408203125,-0.83349609375
3,-0.4351145038167939,5.099236641221374,7.3740458015267185,0.13427734375,0.109619140625,-0.9765625
3,-0.8091603053435115,4.931297709923665,2.1374045801526718,0.171875,0.00244140625,-0.900634765625
3,-1.045801526717557,5.106870229007634,6.320610687022902,0.200927734375,-0.040283203125,-1.03369140625
3,-4.702290076335878,4.900763358778626,11.076335877862599,0.144287109375,0.1416015625,-0.949951171875
3,-5.1603053435114505,5.061068702290076,25.42748091603054,0.10400390625,0.1357421875,-0.910888671875
3,-2.984732824427481,3.4732824427480917,-0.9923664122137404,0.371337890625,-0.1591796875,-0.951416015625
3,-1.5877862595419852,4.8396946564885495,1.66412213740458,0.368896484375,-0.13671875,-0.950927734375
3,-3.0,7.679389312977098,2.4732824427480917,0.3408203125,-0.0615234375,-0.939697265625
3,-2.3587786259541983,8.450381679389313,3.7022900763358777,0.425537109375,-0.124755859375,-1.110107421875
3,-1.6717557251908401,-0.3282442748091603,1.106870229007634,0.24951171875,-0.03125,-0.8515625
3,2.7480916030534353,7.3969465648854955,2.450381679389313,0.1767578125,-0.149169921875,-0.98095703125
3,-0.06106870229007633,4.343511450381679,-1.7862595419847331,0.3583984375,-0.0751953125,-0.852783203125
3,-2.648854961832061,8.572519083969466,1.992366412213741,0.30712890625,-0.08740234375,-0.7578125
3,-1.4656488549618318,4.137404580152672,10.77099236641221,0.1689453125,0.21728515625,-0.99267578125
3,-9.450381679389313,5.2671755725190845,32.80152671755725,0.233154296875,0.3427734375,-0.77880859375
3,-11.87022900763359,-0.1145038167938931,39.969465648854964,0.3125,0.377197265625,-0.699951171875
3,-14.94656488549618,9.045801526717558,30.328244274809162,0.421630859375,0.172119140625,-0.98583984375
3,-0.8549618320610687,-1.0610687022900758,11.091603053435119,0.124755859375,0.094482421875,-0.905029296875
3,-6.801526717557253,11.809160305343509,15.0381679389313,0.188232421875,0.25341796875,-1.263916015625
3,0.8931297709923665,2.206106870229008,1.4732824427480917,0.507080078125,-0.122802734375,-1.037841796875
3,0.5648854961832062,7.5954198473282455,1.7862595419847331,0.416015625,-0.085205078125,-0.84033203125
3,-5.5190839694656475,6.0458015267175576,1.580152671755725,0.316162109375,-0.00244140625,-0.91259765625
3,1.229007633587786,0.1297709923664122,1.251908396946565,0.244140625,-0.157470703125,-1.067626953125
3,-3.488549618320611,5.3740458015267185,2.267175572519084,0.20751953125,0.031982421875,-0.94287109375
3,-4.870229007633588,0.6793893129770993,-2.854961832061069,0.37548828125,-0.218505859375,-0.9951171875
3,-2.274809160305344,3.6717557251908386,-0.6793893129770993,0.20947265625,-0.230712890625,-1.12158203125
3,-4.633587786259542,5.8244274809160315,0.5954198473282443,0.2099609375,-0.092041015625,-1.1904296875
3,-0.06870229007633588,6.419847328244275,6.1526717557251915,0.187744140625,0.1640625,-0.963623046875
3,-0.022900763358778633,7.442748091603052,22.328244274809162,0.276123046875,0.310791015625,-1.025634765625
3,-8.473282442748092,9.19083969465649,35.33587786259542,0.246337890625,0.57080078125,-1.192138671875
3,-14.36641221374046,-10.320610687022901,43.343511450381676,0.057861328125,0.562744140625,-0.86767578125
3,-5.312977099236641,-5.1526717557251915,41.36641221374046,0.19140625,0.623291015625,-0.941162109375
3,-4.6412213740458,2.267175572519084,21.748091603053442,0.314697265625,0.1181640625,-1.153076171875
3,1.5877862595419852,2.175572519083969,-1.9618320610687021,0.260498046875,-0.125244140625,-0.928466796875
3,0.2519083969465649,0.9083969465648856,-0.06870229007633588,0.34423828125,-0.078369140625,-0.8818359375
3,-1.7862595419847331,3.5725190839694663,0.2824427480916031,0.328369140625,-0.113525390625,-0.919921875
3,2.068702290076336,0.7480916030534351,0.8396946564885496,0.2587890625,-0.1279296875,-0.803955078125
3,-2.007633587786259,5.534351145038168,2.404580152671756,0.22607421875,-0.09716796875,-0.859130859375
3,-0.9541984732824428,9.244274809160306,2.16793893129771,0.4384765625,-0.134033203125,-1.043212890625
3,-1.1145038167938932,-1.740458015267176,0.7557251908396947,0.3037109375,-0.04345703125,-0.893310546875
3,-1.015267175572519,1.687022900763359,1.076335877862595,0.290771484375,-0.05224609375,-1.01513671875
3,-2.49618320610687,0.5267175572519084,0.4961832061068702,0.288330078125,-0.156005859375,-1.06005859375
3,3.511450381679389,8.320610687022901,6.496183206106871,0.175048828125,0.116943359375,-1.050048828125
3,-4.015267175572519,3.717557251908397,22.725190839694662,0.14697265625,0.299072265625,-1.2021484375
3,-8.450381679389313,-2.595419847328244,33.32824427480916,0.169677734375,0.44482421875,-0.99609375
3,-5.419847328244275,5.32824427480916,35.862595419847324,0.367919921875,0.318359375,-1.337646484375
3,-3.450381679389313,8.549618320610687,38.6793893129771,0.34375,0.408203125,-0.829345703125
3,-2.938931297709924,4.8396946564885495,0.6946564885496184,0.359130859375,-0.183837890625,-1.035400390625
3,-0.7175572519083969,4.6412213740458,0.9083969465648856,0.41455078125,-0.14794921875,-0.9912109375
3,3.1984732824427478,2.122137404580153,0.2442748091603053,0.3359375,-0.109619140625,-0.992919921875
3,-1.4122137404580148,5.748091603053435,-0.6870229007633588,0.141357421875,-0.154296875,-1.110107421875
3,4.320610687022901,5.946564885496183,0.7328244274809159,0.245849609375,-0.06689453125,-0.939208984375
3,-2.9007633587786263,4.297709923664122,-1.946564885496183,0.220947265625,-0.0947265625,-0.763427734375
3,-2.1984732824427478,12.82442748091603,0.6183206106870229,0.405029296875,-0.1943359375,-1.163818359375
3,-5.3740458015267185,2.9160305343511452,1.6412213740458013,0.373046875,-0.21728515625,-1.05322265625
3,2.83206106870229,0.7480916030534351,0.8320610687022901,0.3134765625,-0.097412109375,-1.056640625
3,-11.374045801526721,4.236641221374046,19.671755725190838,0.425048828125,0.197265625,-1.261474609375
3,2.16793893129771,3.541984732824428,38.97709923664122,0.4697265625,0.361572265625,-1.132080078125
3,-6.366412213740458,10.05343511450382,37.37404580152672,0.529296875,0.327392578125,-0.7548828125
3,-4.625954198473282,8.412213740458014,32.0,0.310546875,0.39453125,-1.141357421875
3,-5.7251908396946565,0.816793893129771,22.061068702290076,0.31005859375,0.126953125,-1.079833984375
3,-1.251908396946565,1.290076335877863,0.648854961832061,0.265625,-0.107666015625,-0.9228515625
3,-1.229007633587786,5.885496183206108,0.3816793893129771,0.3681640625,-0.1728515625,-0.86376953125
3,-1.458015267175573,2.6335877862595423,-0.4351145038167939,0.31787109375,-0.15185546875,-0.9599609375
3,-2.2442748091603053,4.366412213740458,1.312977099236641,0.413330078125,-0.137939453125,-0.976318359375
3,-1.229007633587786,4.526717557251908,3.320610687022901,0.319580078125,-0.111328125,-0.98388671875
3,0.26717557251908397,2.679389312977099,3.6946564885496183,0.4150390625,-0.148681640625,-0.917724609375
3,-3.8625954198473282,1.480916030534351,3.381679389312977,0.34912109375,-0.159423828125,-0.91064453125
3,-1.5572519083969463,0.7175572519083969,0.08396946564885496,0.27392578125,-0.316650390625,-0.93896484375
3,1.4274809160305342,5.541984732824427,0.931297709923664,0.221923828125,-0.191162109375,-1.008544921875
3,0.7786259541984732,3.5725190839694663,1.717557251908397,0.177734375,-0.15771484375,-0.96044921875
3,-2.2900763358778615,-1.419847328244275,-0.8015267175572519,0.284423828125,-0.199951171875,-1.007080078125
3,-7.541984732824428,7.0687022900763345,0.9923664122137404,0.283447265625,-0.16162109375,-0.92724609375
3,0.4122137404580153,2.4732824427480917,-0.5114503816793893,0.2880859375,-0.203125,-1.069091796875
3,-1.030534351145038,-1.885496183206107,0.2748091603053435,0.280029296875,-0.263427734375,-1.13037109375
3,-1.0,5.8549618320610675,-0.1984732824427481,0.363525390625,-0.208740234375,-0.849853515625
3,-0.5572519083969466,5.8244274809160315,-0.3053435114503817,0.46728515625,-0.1435546875,-1.005859375
3,1.4274809160305342,4.656488549618321,-0.1526717557251908,0.5537109375,-0.22802734375,-0.99169921875
3,-2.076335877862595,-1.106870229007634,1.5496183206106868,0.22265625,-0.101806640625,-1.044189453125
3,4.69465648854962,4.244274809160306,4.3816793893129775,0.46826171875,-0.186767578125,-0.8349609375
3,0.4045801526717557,4.290076335877862,0.7175572519083969,0.3466796875,-0.1650390625,-1.030029296875
3,-2.145038167938931,4.7251908396946565,1.5954198473282442,0.134033203125,-0.17236328125,-0.8935546875
3,1.129770992366412,1.984732824427481,2.213740458015267,0.082275390625,-0.014404296875,-0.87841796875
3,5.351145038167939,4.076335877862595,-1.213740458015267,0.47802734375,-0.166015625,-1.015380859375
3,0.7022900763358778,3.7022900763358777,-1.9618320610687021,0.330322265625,-0.107666015625,-0.95263671875
3,0.1374045801526718,6.229007633587786,1.7557251908396951,0.328125,-0.155029296875,-0.927490234375
3,1.4885496183206108,9.572519083969466,1.7862595419847331,0.244873046875,-0.122802734375,-1.070068359375
3,1.8778625954198471,3.3129770992366407,-0.7022900763358778,0.20263671875,-0.1201171875,-0.943359375
3,-5.3587786259542,3.9770992366412212,5.763358778625954,0.12451171875,0.07958984375,-0.949951171875
3,-2.213740458015267,2.8015267175572522,0.2519083969465649,0.388916015625,-0.099365234375,-1.044189453125
3,3.6870229007633593,4.977099236641221,1.6793893129770991,0.375,-0.11865234375,-0.8369140625
3,-1.4503816793893132,5.3587786259542,3.106870229007634,0.34375,-0.16650390625,-1.12255859375
3,-1.419847328244275,7.793893129770992,1.122137404580153,0.373779296875,-0.03173828125,-1.029296875
3,4.977099236641221,0.2595419847328244,1.083969465648855,0.35498046875,-0.12451171875,-0.839599609375
3,1.580152671755725,1.603053435114504,1.778625954198473,0.354248046875,-0.212158203125,-0.9638671875
3,-7.6183206106870225,-0.6030534351145038,-0.2137404580152672,0.087646484375,-0.03125,-0.9990234375
3,2.061068702290076,5.213740458015267,1.33587786259542,0.22021484375,-0.164794921875,-0.751220703125
3,0.5648854961832062,4.099236641221374,1.4961832061068703,0.177978515625,-0.095703125,-1.0
3,-1.908396946564886,9.938931297709924,2.160305343511451,0.54443359375,-0.072265625,-0.84912109375
3,1.83969465648855,3.450381679389313,-0.6641221374045801,0.298583984375,-0.234130859375,-0.70751953125
3,-1.137404580152672,1.175572519083969,-0.2900763358778626,0.18017578125,-0.131591796875,-0.786376953125
3,-0.9923664122137404,2.160305343511451,0.3969465648854962,0.2353515625,-0.042724609375,-0.900146484375
3,0.9770992366412212,0.6641221374045801,-1.419847328244275,0.23046875,-0.181884765625,-0.955078125
3,-0.9083969465648856,4.022900763358779,0.9618320610687024,0.17529296875,-0.05126953125,-0.98681640625
3,-0.9847328244274808,4.122137404580153,1.022900763358779,0.182373046875,-0.042236328125,-0.999755859375
3,-0.931297709923664,4.229007633587786,1.190839694656489,0.1796875,-0.061279296875,-1.006103515625
3,-0.5419847328244275,4.2595419847328255,0.5190839694656488,0.1728515625,-0.0322265625,-0.9931640625
3,-1.022900763358779,3.679389312977099,1.0381679389312979,0.17822265625,-0.0361328125,-0.971923828125
3,-0.9541984732824428,3.824427480916031,0.7404580152671756,0.177001953125,-0.0556640625,-0.985107421875
3,-0.7557251908396947,4.206106870229007,1.0610687022900758,0.16748046875,-0.053955078125,-1.002197265625
3,-0.4503816793893129,4.297709923664122,0.8854961832061069,0.157470703125,-0.052001953125,-1.005859375
3,-1.022900763358779,4.122137404580153,0.8931297709923665,0.180908203125,-0.044189453125,-1.00634765625
3,-0.7175572519083969,4.015267175572519,0.7328244274809159,0.17578125,-0.05712890625,-0.990234375
3,-0.6412213740458015,4.305343511450381,0.8549618320610687,0.1796875,-0.045166015625,-0.994384765625
3,-0.8015267175572519,4.145038167938932,0.6030534351145038,0.179443359375,-0.04931640625,-0.9853515625
3,-0.8015267175572519,4.175572519083969,1.091603053435114,0.1728515625,-0.048583984375,-0.99462890625
3,-0.2595419847328244,4.129770992366412,0.8854961832061069,0.177978515625,-0.057861328125,-0.97412109375
3,-0.9083969465648856,4.1603053435114505,0.7633587786259542,0.1806640625,-0.08447265625,-0.99560546875
3,-0.5190839694656488,3.984732824427481,0.7251908396946565,0.24267578125,-0.0908203125,-0.99267578125
3,-0.4809160305343512,7.0687022900763345,1.66412213740458,0.4306640625,-0.154052734375,-0.961181640625
3,-0.9618320610687024,4.3816793893129775,0.9618320610687024,0.417236328125,-0.147705078125,-0.92724609375
3,0.1221374045801527,2.458015267175572,1.4885496183206108,0.40234375,-0.126708984375,-1.013916015625
3,-0.6259541984732825,3.343511450381679,0.931297709923664,0.46142578125,-0.15380859375,-0.979736328125
3,1.8702290076335881,6.748091603053435,1.541984732824427,0.43994140625,-0.0751953125,-0.976318359375
3,-0.9083969465648856,5.106870229007634,0.4961832061068702,0.387939453125,-0.07568359375,-1.015380859375
3,-5.656488549618322,5.076335877862594,0.9923664122137404,0.451904296875,-0.165283203125,-1.056396484375
3,3.274809160305344,7.122137404580152,1.007633587786259,0.39453125,-0.094970703125,-0.984619140625
3,-2.312977099236641,3.3129770992366407,-1.4656488549618318,0.325927734375,-0.17236328125,-0.870849609375
3,0.1755725190839695,-2.328244274809161,-1.793893129770992,0.2802734375,-0.115966796875,-1.0078125
3,10.465648854961831,4.3740458015267185,2.2442748091603053,0.305419921875,-0.158447265625,-0.94580078125
3,-2.3587786259541983,2.2519083969465647,0.4122137404580153,0.151123046875,-0.11376953125,-0.85888671875
4,-1.610687022900763,4.984732824427481,1.045801526717557,0.056396484375,0.00390625,-1.034912109375
4,1.053435114503817,4.519083969465648,1.0992366412213739,-0.01611328125,0.111572265625,-0.92822265625
4,1.954198473282443,6.0458015267175576,0.7786259541984732,0.012451171875,0.021484375,-0.92431640625
4,1.1450381679389308,7.564885496183206,1.137404580152672,0.028564453125,0.0458984375,-1.001953125
4,-2.541984732824428,2.0229007633587788,0.8091603053435115,0.104736328125,-0.024658203125,-1.056884765625
4,-3.183206106870229,2.0,1.1832061068702289,-0.009765625,-0.021728515625,-0.99853515625
4,-2.381679389312977,7.2824427480916025,1.5343511450381682,0.018310546875,0.078857421875,-0.9462890625
4,1.030534351145038,5.679389312977098,0.3053435114503817,0.021728515625,0.072021484375,-0.89794921875
4,-0.6717557251908397,4.366412213740458,0.6106870229007634,0.006103515625,0.077392578125,-1.101318359375
4,-0.1221374045801527,3.5725190839694663,0.5648854961832062,0.01904296875,0.023193359375,-1.030517578125
4,-0.6641221374045801,5.091603053435113,0.03053435114503817,-0.025390625,0.080810546875,-1.089599609375
4,-1.076335877862595,4.862595419847328,1.893129770992366,0.04443359375,0.032958984375,-0.978271484375
4,-1.015267175572519,4.2824427480916025,-1.938931297709924,0.03369140625,0.0283203125,-0.9775390625
4,-0.9541984732824428,4.030534351145038,0.4885496183206107,0.031494140625,-0.027099609375,-1.031005859375
4,0.5038167938931297,4.877862595419847,0.6946564885496184,0.030517578125,0.042236328125,-0.9658203125
4,0.7099236641221374,4.175572519083969,1.297709923664122,0.09765625,-0.063720703125,-1.003662109375
4,-0.6030534351145038,5.748091603053435,0.7557251908396947,0.04052734375,0.00537109375,-1.020751953125
4,0.2061068702290076,3.7480916030534353,0.8091603053435115,0.0517578125,0.122802734375,-0.9638671875
4,1.8167938931297711,5.1526717557251915,0.8091603053435115,-0.013427734375,0.078857421875,-0.940185546875
4,-0.9541984732824428,7.114503816793892,0.5114503816793893,0.05419921875,0.07373046875,-1.0712890625
4,-2.8702290076335877,4.610687022900763,0.2595419847328244,0.052978515625,0.03515625,-1.0966796875
4,-3.106870229007634,2.328244274809161,1.076335877862595,0.016357421875,0.090576171875,-1.00341796875
4,-1.770992366412214,4.801526717557252,0.053435114503816786,0.084228515625,0.05859375,-1.007080078125
4,0.053435114503816786,6.977099236641222,0.2290076335877863,0.124755859375,0.007568359375,-0.963623046875
4,-0.4961832061068702,5.1603053435114505,0.7404580152671756,0.136474609375,0.00927734375,-1.0439453125
4,-1.419847328244275,5.435114503816794,0.7022900763358778,0.10595703125,0.00439453125,-0.992919921875
4,0.053435114503816786,0.3511450381679389,0.7862595419847328,0.11572265625,0.0380859375,-0.986083984375
4,2.893129770992366,4.229007633587786,1.030534351145038,0.297607421875,-0.095947265625,-0.95849609375
4,-0.7786259541984732,7.541984732824428,0.6870229007633588,-0.0048828125,0.069091796875,-0.974365234375
4,2.053435114503817,5.3587786259542,0.6030534351145038,-0.060791015625,0.077392578125,-0.947265625
4,-0.2290076335877863,2.435114503816794,0.9770992366412212,-0.03369140625,0.025146484375,-0.9921875
4,-0.1068702290076336,3.106870229007634,1.5572519083969463,-0.0478515625,0.0166015625,-1.05908203125
4,-0.022900763358778633,4.984732824427481,1.603053435114504,0.01123046875,0.0693359375,-0.977783203125
4,-0.7175572519083969,5.557251908396948,1.625954198473282,-0.005126953125,0.1025390625,-1.024658203125
4,-1.106870229007634,7.343511450381678,0.8396946564885496,0.03564453125,-0.0322265625,-0.971435546875
4,1.824427480916031,5.1679389312977095,1.5877862595419852,0.059814453125,0.093505859375,-0.983154296875
4,-1.4122137404580148,4.00763358778626,0.5114503816793893,0.04833984375,0.001220703125,-1.021728515625
4,-0.6793893129770993,5.534351145038168,0.6641221374045801,0.0908203125,0.10888671875,-1.042236328125
4,-0.1450381679389313,3.8091603053435112,0.9847328244274808,0.024658203125,0.01123046875,-0.924560546875
4,-1.0610687022900758,5.770992366412214,0.7938931297709924,0.016845703125,0.076904296875,-0.9140625
4,-3.793893129770992,10.13740458015267,0.816793893129771,0.074462890625,0.04052734375,-0.8466796875
4,-13.3587786259542,-8.679389312977099,9.335877862595419,0.397705078125,-0.062255859375,-1.224853515625
4,0.6259541984732825,7.213740458015268,1.221374045801527,0.07421875,0.08544921875,-0.978515625
4,1.717557251908397,5.5190839694656475,1.8473282442748091,0.103515625,-0.0224609375,-1.033203125
4,0.04580152671755725,1.366412213740458,1.274809160305344,0.12451171875,-0.0185546875,-1.065673828125
4,-1.213740458015267,3.145038167938931,0.9923664122137404,0.00390625,0.06103515625,-0.970703125
4,-0.4656488549618321,9.091603053435117,1.709923664122137,0.185302734375,0.03955078125,-1.072998046875
4,1.251908396946565,9.122137404580153,2.7251908396946556,0.658447265625,-0.251708984375,-1.02978515625
4,-0.1145038167938931,5.137404580152672,0.5877862595419847,0.60205078125,-0.32958984375,-0.965087890625
4,-1.709923664122137,5.809160305343513,0.36641221374045796,0.013671875,0.13134765625,-1.03466796875
4,1.717557251908397,5.549618320610686,1.022900763358779,0.036865234375,0.071044921875,-1.06396484375
4,-0.8396946564885496,7.061068702290076,1.251908396946565,-0.009765625,0.08251953125,-1.080810546875
4,-0.916030534351145,5.656488549618322,0.7328244274809159,0.06982421875,0.03076171875,-1.05908203125
4,0.1908396946564886,8.465648854961831,1.4885496183206108,0.413818359375,-0.118408203125,-0.939453125
4,1.343511450381679,6.465648854961832,1.5343511450381682,0.617431640625,-0.20361328125,-1.05517578125
4,-1.190839694656489,3.6412213740458017,3.213740458015267,0.671142578125,-0.318359375,-0.974853515625
4,-3.0,4.427480916030534,0.7099236641221374,-0.025634765625,0.078369140625,-0.930419921875
4,-0.4274809160305343,2.2519083969465647,0.7251908396946565,0.037353515625,0.051513671875,-1.01708984375
4,-0.5648854961832062,2.9160305343511452,0.5954198473282443,0.0048828125,0.07373046875,-0.925537109375
4,0.9236641221374046,6.183206106870228,1.4656488549618318,0.089599609375,-0.00146484375,-1.023681640625
4,-2.404580152671756,2.404580152671756,0.2519083969465649,0.523193359375,-0.220947265625,-1.083984375
4,5.1603053435114505,12.98473282442748,2.732824427480916,0.6806640625,-0.3486328125,-0.965576171875
4,3.0992366412213737,7.450381679389312,0.9389312977099236,0.587646484375,-0.227294921875,-0.912353515625
4,-1.3206106870229009,5.068702290076335,0.1145038167938931,-0.023681640625,0.05029296875,-1.075439453125
4,-1.4503816793893132,4.564885496183206,0.3893129770992366,0.052978515625,0.08349609375,-1.115478515625
4,0.8091603053435115,2.145038167938931,0.3511450381679389,-0.01806640625,0.06640625,-1.050537109375
4,-1.748091603053435,3.6870229007633593,0.6946564885496184,0.03173828125,0.060302734375,-1.021484375
4,1.4732824427480917,6.015267175572518,1.015267175572519,0.39697265625,-0.072265625,-0.99267578125
4,-0.03053435114503817,4.961832061068702,0.36641221374045796,0.561767578125,-0.1943359375,-0.97314453125
4,-3.557251908396946,5.2595419847328255,0.9618320610687024,0.569580078125,-0.325927734375,-0.981201171875
4,-2.786259541984733,7.5190839694656475,1.7633587786259541,0.058837890625,0.088623046875,-0.9990234375
4,-0.9083969465648856,5.618320610687021,1.137404580152672,0.026611328125,0.14404296875,-0.983154296875
4,-0.2977099236641221,7.0458015267175576,1.4885496183206108,0.05078125,0.033935546875,-0.98388671875
4,-0.1526717557251908,7.2824427480916025,2.389312977099237,0.5390625,-0.13720703125,-1.270751953125
4,-0.5801526717557252,5.381679389312979,1.8778625954198471,0.5869140625,-0.255859375,-0.95068359375
4,-3.656488549618321,7.1755725190839685,1.748091603053435,0.6123046875,-0.29345703125,-0.934814453125
4,-1.725190839694656,5.809160305343513,1.137404580152672,0.66015625,-0.2236328125,-0.994140625
4,-0.9389312977099236,5.32824427480916,0.8625954198473282,0.03173828125,0.05859375,-0.974365234375
4,-0.648854961832061,3.969465648854962,0.9694656488549618,-0.03369140625,0.101806640625,-0.974853515625
4,-1.305343511450382,3.4732824427480917,0.5190839694656488,0.011962890625,0.068115234375,-1.04296875
4,0.7099236641221374,8.580152671755725,1.083969465648855,0.2275390625,-0.16064453125,-0.90478515625
4,0.2061068702290076,2.3435114503816794,1.8778625954198471,0.60693359375,-0.1474609375,-1.1728515625
4,-0.2977099236641221,5.038167938931298,0.8015267175572519,0.621826171875,-0.262939453125,-1.000244140625
4,-1.3816793893129773,3.374045801526718,1.1145038167938932,0.61328125,-0.2265625,-0.97265625
4,-2.732824427480916,4.977099236641221,1.610687022900763,0.05126953125,0.10107421875,-1.245849609375
4,-0.1068702290076336,6.893129770992366,1.274809160305344,0.087890625,-0.008056640625,-1.071533203125
4,4.503816793893129,5.022900763358779,1.2442748091603049,0.00927734375,0.034912109375,-0.947021484375
4,5.1603053435114505,6.770992366412214,1.5725190839694658,0.2978515625,-0.112548828125,-1.039306640625
4,-3.564885496183206,4.412213740458014,1.4885496183206108,0.53857421875,-0.245361328125,-1.034912109375
4,-2.282442748091603,3.0229007633587788,0.8015267175572519,0.638427734375,-0.2236328125,-1.05029296875
4,-1.984732824427481,5.351145038167939,1.175572519083969,0.640869140625,-0.326416015625,-0.991455078125
4,0.03816793893129771,4.824427480916031,1.206106870229008,0.03076171875,0.032958984375,-1.05322265625
4,-3.8702290076335877,4.8473282442748085,1.206106870229008,0.11669921875,0.08251953125,-1.059814453125
4,3.290076335877862,9.480916030534349,1.33587786259542,0.101318359375,-0.027587890625,-1.0546875
4,0.4656488549618321,2.7251908396946556,1.4732824427480917,0.580810546875,-0.145751953125,-1.023193359375
4,-0.022900763358778633,4.229007633587786,1.16030534351145,0.64013671875,-0.307861328125,-0.879150390625
4,0.2137404580152672,4.625954198473282,0.5954198473282443,0.577392578125,-0.270751953125,-0.939453125
4,-1.343511450381679,2.595419847328244,0.6564885496183206,0.643310546875,-0.25244140625,-0.91162109375
4,2.549618320610687,4.969465648854962,0.5572519083969466,0.120849609375,-0.0615234375,-0.9384765625
4,-4.480916030534352,4.290076335877862,0.2900763358778626,0.14453125,-0.023193359375,-1.072021484375
4,5.290076335877862,7.2595419847328255,-0.4045801526717557,0.136474609375,0.117431640625,-1.057373046875
4,4.068702290076335,7.083969465648855,0.6641221374045801,0.194091796875,0.022705078125,-0.989013671875
4,-0.8473282442748091,0.6717557251908397,1.274809160305344,0.578125,-0.260009765625,-0.98291015625
4,5.679389312977098,2.442748091603054,1.4656488549618318,0.678955078125,-0.305419921875,-0.9716796875
4,0.06106870229007633,7.297709923664121,1.4045801526717558,0.647216796875,-0.30712890625,-0.885498046875
4,-2.267175572519084,5.32824427480916,0.8778625954198473,-0.029541015625,0.137451171875,-1.027587890625
4,0.1908396946564886,5.038167938931298,0.9618320610687024,-0.005859375,0.199951171875,-1.04345703125
4,0.5725190839694656,7.4885496183206115,0.7404580152671756,0.05126953125,-0.011962890625,-0.818603515625
4,0.6641221374045801,4.1603053435114505,0.7786259541984732,0.506591796875,-0.2431640625,-0.92041015625
4,2.8091603053435104,7.641221374045801,1.122137404580153,0.706787109375,-0.3740234375,-0.999755859375
4,2.068702290076336,4.824427480916031,2.076335877862595,0.63671875,-0.30615234375,-1.0546875
4,0.1679389312977099,4.572519083969466,1.290076335877863,0.592529296875,-0.28515625,-0.99609375
4,-3.8778625954198467,5.2595419847328255,1.259541984732824,0.0234375,0.031982421875,-1.0546875
4,-1.633587786259542,4.541984732824427,1.3893129770992372,-0.07958984375,0.1064453125,-1.0673828125
4,-0.5267175572519084,7.2748091603053435,0.3053435114503817,0.038330078125,0.038330078125,-1.0419921875
4,2.595419847328244,7.984732824427482,-1.251908396946565,0.5859375,-0.1591796875,-0.9970703125
4,0.6259541984732825,4.1603053435114505,-1.916030534351145,0.695068359375,-0.3583984375,-0.9912109375
4,-0.5114503816793893,2.015267175572519,0.7251908396946565,0.669677734375,-0.347900390625,-1.041259765625
4,-3.7633587786259537,1.992366412213741,0.931297709923664,0.000732421875,0.06982421875,-1.115478515625
4,-0.5190839694656488,5.465648854961832,-1.1450381679389308,0.076416015625,0.0673828125,-0.913330078125
4,1.2671755725190839,4.67175572519084,-0.4580152671755725,0.1201171875,0.089111328125,-1.041015625
4,-1.4427480916030537,2.145038167938931,0.3206106870229007,0.078369140625,0.0576171875,-0.9892578125
4,1.015267175572519,8.65648854961832,1.885496183206107,0.52783203125,-0.319091796875,-1.0234375
4,-4.702290076335878,0.2900763358778626,-0.2748091603053435,0.540771484375,-0.30078125,-1.001220703125
4,-3.8778625954198467,3.0458015267175567,0.5114503816793893,0.732177734375,-0.323974609375,-1.05908203125
4,-0.06106870229007633,4.503816793893129,0.8931297709923665,0.646728515625,-0.306884765625,-1.0
4,5.312977099236641,3.091603053435115,0.8320610687022901,-0.029052734375,0.080810546875,-0.94921875
4,-0.5267175572519084,6.473282442748093,0.9465648854961832,0.07421875,0.108154296875,-1.03759765625
4,-5.877862595419848,4.2595419847328255,1.007633587786259,0.151611328125,-0.017822265625,-1.0068359375
4,0.6030534351145038,4.900763358778626,1.770992366412214,0.45947265625,-0.2578125,-1.0771484375
4,-2.824427480916031,4.938931297709924,0.9770992366412212,0.653076171875,-0.291259765625,-0.822265625
4,-0.2900763358778626,4.778625954198472,0.4274809160305343,0.643798828125,-0.3251953125,-1.036376953125
4,-0.4885496183206107,4.297709923664122,0.9083969465648856,0.4775390625,-0.21728515625,-0.97998046875
4,-0.06106870229007633,2.610687022900763,0.6717557251908397,0.0107421875,0.11181640625,-1.01220703125
4,1.480916030534351,5.572519083969466,1.045801526717557,0.091064453125,0.11767578125,-1.010986328125
4,0.5496183206106869,7.251908396946565,0.3282442748091603,0.1181640625,0.037841796875,-1.058837890625
4,-4.419847328244275,4.8473282442748085,0.9389312977099236,0.747802734375,-0.396728515625,-0.93212890625
4,-3.6488549618320607,4.977099236641221,0.9694656488549618,0.692138671875,-0.341552734375,-0.940673828125
4,-1.6488549618320612,3.488549618320611,0.5954198473282443,0.032470703125,0.05859375,-0.892822265625
4,-1.137404580152672,4.099236641221374,1.030534351145038,0.102294921875,0.028076171875,-1.005859375
4,-2.0,3.274809160305344,1.5954198473282442,0.154541015625,0.021484375,-0.927490234375
4,-5.8473282442748085,2.5267175572519083,11.625954198473279,0.63427734375,-0.34521484375,-0.978515625
4,-4.0381679389312986,5.572519083969466,0.900763358778626,0.592041015625,-0.41064453125,-0.947998046875
4,-1.6793893129770991,4.175572519083969,0.8396946564885496,0.5,-0.219970703125,-0.94873046875
4,-1.0687022900763359,4.419847328244275,1.175572519083969,0.280029296875,-0.051513671875,-0.985595703125
4,-1.305343511450382,3.66412213740458,1.053435114503817,0.103515625,0.035400390625,-1.031494140625
4,-0.816793893129771,4.618320610687022,0.9770992366412212,0.121826171875,0.03759765625,-1.03955078125
4,0.5801526717557252,4.8473282442748085,0.7480916030534351,0.031982421875,0.000732421875,-1.02783203125
4,-1.946564885496183,7.022900763358778,1.122137404580153,0.0,0.056884765625,-0.99267578125
4,1.5496183206106868,6.6183206106870225,1.3893129770992372,0.4248046875,-0.1767578125,-0.923583984375
4,-3.49618320610687,3.8015267175572522,1.4885496183206108,0.529296875,-0.388916015625,-1.001708984375
4,4.114503816793893,8.01526717557252,1.3282442748091599,0.69091796875,-0.320068359375,-0.938720703125
4,-1.66412213740458,4.290076335877862,1.137404580152672,0.60205078125,-0.279541015625,-1.01708984375
4,-1.015267175572519,5.8320610687022905,0.4885496183206107,0.415771484375,-0.1513671875,-0.998779296875
4,-1.954198473282443,5.1679389312977095,0.6793893129770993,0.033935546875,0.06298828125,-1.0439453125
4,4.6412213740458,8.770992366412214,2.320610687022901,0.509521484375,-0.154296875,-0.933349609375
4,0.6259541984732825,5.427480916030534,3.152671755725191,0.67041015625,-0.40673828125,-1.0078125
4,-5.7175572519083975,5.190839694656488,1.541984732824427,0.630859375,-0.4501953125,-0.983154296875
4,-1.6412213740458013,3.5954198473282437,0.5038167938931297,0.42333984375,-0.1279296875,-0.94873046875
4,-0.5954198473282443,4.32824427480916,0.6793893129770993,0.28466796875,-0.083251953125,-0.994873046875
4,-0.3816793893129771,4.679389312977099,0.9770992366412212,0.127685546875,0.024658203125,-0.998291015625
4,0.7251908396946565,3.885496183206107,1.5038167938931297,-0.005615234375,0.08056640625,-1.03955078125
4,0.1984732824427481,4.0458015267175576,2.106870229007634,-0.0205078125,0.010009765625,-1.119140625
4,1.916030534351145,9.442748091603056,2.786259541984733,0.382568359375,-0.226806640625,-0.99462890625
4,1.4656488549618318,4.236641221374046,2.7633587786259546,0.64013671875,-0.37646484375,-0.93115234375
4,3.4198473282442747,5.526717557251909,3.847328244274809,0.709228515625,-0.302978515625,-0.95849609375
4,-1.0610687022900758,4.2671755725190845,0.8778625954198473,0.55810546875,-0.240966796875,-0.95068359375
4,-2.152671755725191,2.541984732824428,0.3435114503816794,0.056884765625,0.05126953125,-0.954345703125
4,0.4885496183206107,5.969465648854962,1.541984732824427,0.0009765625,0.05712890625,-0.84814453125
4,-0.8015267175572519,4.343511450381679,1.0992366412213739,0.099609375,0.16845703125,-1.04443359375
4,0.7022900763358778,5.083969465648855,0.6412213740458015,0.444580078125,-0.154052734375,-1.03466796875
4,1.4961832061068703,4.206106870229007,1.740458015267176,0.5458984375,-0.17822265625,-0.9619140625
4,1.885496183206107,5.0,2.0839694656488548,0.5341796875,-0.281982421875,-0.907470703125
4,-0.6412213740458015,5.106870229007634,1.3206106870229009,0.548583984375,-0.24365234375,-0.97265625
4,-2.557251908396946,3.8625954198473282,0.4503816793893129,0.066650390625,0.083251953125,-0.93359375
4,-1.946564885496183,5.877862595419848,0.8320610687022901,0.092529296875,0.11181640625,-1.169677734375
4,-1.4885496183206108,7.435114503816794,1.045801526717557,0.006591796875,0.05615234375,-0.854248046875
4,5.633587786259542,6.435114503816794,1.992366412213741,0.46826171875,-0.182373046875,-0.89453125
4,0.5648854961832062,4.984732824427481,1.6412213740458013,0.590576171875,-0.353515625,-0.875
4,-1.984732824427481,4.213740458015267,-0.09923664122137403,0.297607421875,-0.1083984375,-1.026611328125
4,-1.122137404580153,3.786259541984733,0.1908396946564886,0.272216796875,-0.096923828125,-0.975341796875
4,-0.5954198473282443,3.5801526717557253,0.8778625954198473,0.18017578125,-0.03369140625,-0.96240234375
4,-1.213740458015267,5.633587786259542,-0.5877862595419847,-0.018798828125,0.1376953125,-0.996826171875
4,-0.3435114503816794,5.1526717557251915,-0.04580152671755725,0.055419921875,0.12158203125,-1.048583984375
4,1.091603053435114,0.7022900763358778,0.1297709923664122,0.54736328125,-0.234130859375,-1.031494140625
4,-2.122137404580153,4.801526717557252,1.16030534351145,0.673583984375,-0.325439453125,-0.99169921875
4,-0.5572519083969466,4.1679389312977095,1.030534351145038,0.60107421875,-0.298095703125,-0.990966796875
4,-0.1374045801526718,4.916030534351145,1.091603053435114,0.079345703125,0.046142578125,-0.98291015625
4,-0.5954198473282443,3.16793893129771,0.5801526717557252,0.072998046875,0.0185546875,-0.916748046875
4,-2.732824427480916,1.992366412213741,1.274809160305344,-0.014892578125,0.13330078125,-0.964599609375
4,-1.030534351145038,1.4427480916030537,0.2290076335877863,0.0400390625,0.13427734375,-1.087646484375
4,1.541984732824427,7.106870229007634,0.6564885496183206,0.6748046875,-0.30859375,-0.94140625
4,4.305343511450381,5.442748091603052,0.9770992366412212,0.62255859375,-0.23486328125,-0.987060546875
4,-2.274809160305344,3.458015267175572,0.900763358778626,0.586669921875,-0.26904296875,-0.97412109375
4,-1.0381679389312979,3.7022900763358777,1.022900763358779,0.384033203125,-0.13818359375,-1.009765625
4,-0.5267175572519084,4.32824427480916,0.9389312977099236,0.104248046875,0.045654296875,-0.98779296875
4,-0.0916030534351145,5.679389312977098,0.8549618320610687,-0.021728515625,0.11572265625,-0.998779296875
4,-0.1603053435114504,7.809160305343513,0.900763358778626,0.0107421875,0.16552734375,-1.042724609375
4,-0.08396946564885496,3.740458015267175,2.66412213740458,0.565673828125,-0.361572265625,-0.99169921875
4,-4.69465648854962,1.778625954198473,1.2671755725190839,0.575927734375,-0.162353515625,-0.93994140625
4,-1.4427480916030537,3.4732824427480917,0.2824427480916031,0.503173828125,-0.256591796875,-1.057861328125
4,-0.9389312977099236,4.2824427480916025,0.7480916030534351,0.331298828125,-0.0888671875,-0.9765625
4,-0.648854961832061,5.091603053435113,0.6870229007633588,0.141357421875,0.038330078125,-1.015625
4,-0.6335877862595419,4.206106870229007,2.816793893129771,-0.04541015625,0.1259765625,-1.019775390625
4,-1.83206106870229,2.816793893129771,2.267175572519084,0.063720703125,0.046142578125,-1.11376953125
4,-0.3816793893129771,6.061068702290076,1.083969465648855,0.631591796875,-0.34423828125,-0.95751953125
4,0.8625954198473282,6.648854961832062,3.7633587786259537,0.57958984375,-0.251708984375,-1.074462890625
4,-1.3587786259541987,4.7328244274809155,1.458015267175573,0.525390625,-0.217529296875,-1.005859375
4,-0.6412213740458015,4.5114503816793885,0.9465648854961832,0.308349609375,-0.08984375,-0.989501953125
4,-1.251908396946565,4.320610687022901,0.8320610687022901,0.119873046875,0.035888671875,-0.976806640625
4,-0.3435114503816794,4.541984732824427,1.824427480916031,-0.007568359375,0.144775390625,-0.998779296875
4,0.7938931297709924,5.572519083969466,1.175572519083969,0.025390625,0.038330078125,-0.984130859375
4,-0.8396946564885496,5.290076335877862,1.190839694656489,0.602294921875,-0.352294921875,-0.947509765625
4,0.916030534351145,5.541984732824427,0.7480916030534351,0.616943359375,-0.32861328125,-0.96240234375
4,-1.7862595419847331,3.396946564885496,0.8778625954198473,0.1103515625,-0.00048828125,-1.0439453125
4,-0.5572519083969466,4.816793893129772,0.7633587786259542,0.10009765625,0.03076171875,-0.981201171875
4,-0.4427480916030535,2.030534351145038,0.9923664122137404,0.08447265625,0.06396484375,-1.013427734375
4,1.4045801526717558,2.740458015267175,0.1374045801526718,0.103515625,0.07470703125,-1.012939453125
4,3.396946564885496,4.427480916030534,1.3511450381679388,0.18359375,-0.04052734375,-0.91064453125
4,-1.9618320610687021,2.3587786259541983,8.893129770992367,0.472900390625,-0.43115234375,-0.87353515625
4,-0.4351145038167939,5.3969465648854955,1.282442748091603,0.4599609375,-0.22705078125,-0.967041015625
4,-1.0610687022900758,4.534351145038168,1.1832061068702289,0.419189453125,-0.19287109375,-1.002685546875
4,-1.015267175572519,5.2595419847328255,0.6564885496183206,0.308837890625,-0.090087890625,-1.023193359375
4,-0.8778625954198473,4.4885496183206115,0.04580152671755725,0.09814453125,-0.015869140625,-1.001220703125